# VOLUME (A^3/CELL) 	 FREQS (CM^-1) 	 mode number:
220.793750 70.96 1
220.793750 91.79 2
220.793750 111.67 3
220.793750 114.45 4
220.793750 144.93 5
220.793750 151.70 6
220.793750 152.73 7
220.793750 153.38 8
220.793750 169.05 9
220.793750 172.31 10
220.793750 182.28 11
220.793750 184.98 12
220.793750 209.82 13
220.793750 211.12 14
220.793750 228.43 15
220.793750 262.88 16
220.793750 263.57 17
220.793750 269.34 18
220.793750 275.50 19
220.793750 283.92 20
220.793750 302.81 21
220.793750 318.16 22
220.793750 327.48 23
220.793750 327.51 24
220.793750 333.67 25
220.793750 343.65 26
220.793750 359.59 27
220.793750 359.99 28
220.793750 361.04 29
220.793750 362.95 30
220.793750 369.90 31
220.793750 388.41 32
220.793750 391.00 33
220.793750 706.15 34
220.793750 709.52 35
220.793750 717.05 36
220.793750 718.13 37
220.793750 732.14 38
220.793750 737.19 39
220.793750 738.25 40
220.793750 742.85 41
220.793750 865.90 42
220.793750 873.93 43
220.793750 874.87 44
220.793750 880.81 45
220.793750 1131.97 46
220.793750 1134.04 47
220.793750 1134.65 48
220.793750 1140.80 49
220.793750 1461.79 50
220.793750 1465.95 51
220.793750 1487.63 52
220.793750 1499.53 53
220.793750 1533.74 54
220.793750 1557.48 55
220.793750 1575.72 56
220.793750 1620.02 57
220.793750 60.42 58
220.793750 62.64 59
220.793750 88.45 60
220.793750 94.35 61
220.793750 96.16 62
220.793750 101.83 63
220.793750 134.72 64
220.793750 136.63 65
220.793750 147.02 66
220.793750 155.72 67
220.793750 157.54 68
220.793750 166.39 69
220.793750 168.46 70
220.793750 193.71 71
220.793750 193.81 72
220.793750 200.54 73
220.793750 215.19 74
220.793750 233.70 75
220.793750 247.93 76
220.793750 262.28 77
220.793750 266.72 78
220.793750 268.67 79
220.793750 275.07 80
220.793750 283.35 81
220.793750 316.66 82
220.793750 323.57 83
220.793750 327.70 84
220.793750 334.48 85
220.793750 354.13 86
220.793750 357.94 87
220.793750 366.94 88
220.793750 368.18 89
220.793750 380.00 90
220.793750 384.81 91
220.793750 404.59 92
220.793750 430.98 93
220.793750 708.96 94
220.793750 709.72 95
220.793750 716.07 96
220.793750 716.71 97
220.793750 734.76 98
220.793750 736.61 99
220.793750 739.16 100
220.793750 742.39 101
220.793750 872.55 102
220.793750 873.57 103
220.793750 876.22 104
220.793750 879.89 105
220.793750 1132.83 106
220.793750 1133.70 107
220.793750 1133.93 108
220.793750 1134.34 109
220.793750 1468.43 110
220.793750 1475.31 111
220.793750 1495.81 112
220.793750 1499.12 113
220.793750 1563.68 114
220.793750 1571.08 115
220.793750 1622.89 116
220.793750 1628.20 117
220.793750 60.42 118
220.793750 62.64 119
220.793750 88.45 120
220.793750 94.35 121
220.793750 96.16 122
220.793750 101.83 123
220.793750 134.72 124
220.793750 136.63 125
220.793750 147.02 126
220.793750 155.72 127
220.793750 157.54 128
220.793750 166.39 129
220.793750 168.46 130
220.793750 193.71 131
220.793750 193.81 132
220.793750 200.54 133
220.793750 215.19 134
220.793750 233.70 135
220.793750 247.93 136
220.793750 262.28 137
220.793750 266.72 138
220.793750 268.67 139
220.793750 275.07 140
220.793750 283.35 141
220.793750 316.66 142
220.793750 323.57 143
220.793750 327.70 144
220.793750 334.48 145
220.793750 354.13 146
220.793750 357.94 147
220.793750 366.94 148
220.793750 368.18 149
220.793750 380.00 150
220.793750 384.81 151
220.793750 404.59 152
220.793750 430.98 153
220.793750 708.96 154
220.793750 709.72 155
220.793750 716.07 156
220.793750 716.71 157
220.793750 734.76 158
220.793750 736.61 159
220.793750 739.16 160
220.793750 742.39 161
220.793750 872.55 162
220.793750 873.57 163
220.793750 876.22 164
220.793750 879.89 165
220.793750 1132.83 166
220.793750 1133.70 167
220.793750 1133.93 168
220.793750 1134.34 169
220.793750 1468.43 170
220.793750 1475.31 171
220.793750 1495.81 172
220.793750 1499.12 173
220.793750 1563.68 174
220.793750 1571.08 175
220.793750 1622.89 176
220.793750 1628.20 177
220.793750 26.09 178
220.793750 64.03 179
220.793750 86.33 180
220.793750 105.42 181
220.793750 113.31 182
220.793750 126.29 183
220.793750 126.82 184
220.793750 142.31 185
220.793750 142.99 186
220.793750 152.90 187
220.793750 154.34 188
220.793750 172.95 189
220.793750 181.99 190
220.793750 189.01 191
220.793750 197.95 192
220.793750 204.21 193
220.793750 216.13 194
220.793750 222.67 195
220.793750 246.77 196
220.793750 264.29 197
220.793750 270.38 198
220.793750 278.94 199
220.793750 296.00 200
220.793750 297.98 201
220.793750 314.90 202
220.793750 322.32 203
220.793750 323.84 204
220.793750 342.06 205
220.793750 344.24 206
220.793750 357.48 207
220.793750 361.59 208
220.793750 367.82 209
220.793750 372.60 210
220.793750 387.13 211
220.793750 388.46 212
220.793750 427.23 213
220.793750 707.86 214
220.793750 710.25 215
220.793750 716.79 216
220.793750 718.63 217
220.793750 734.13 218
220.793750 736.00 219
220.793750 737.89 220
220.793750 740.38 221
220.793750 866.75 222
220.793750 872.86 223
220.793750 874.44 224
220.793750 879.94 225
220.793750 1131.53 226
220.793750 1132.09 227
220.793750 1133.17 228
220.793750 1133.49 229
220.793750 1471.32 230
220.793750 1492.12 231
220.793750 1506.51 232
220.793750 1536.51 233
220.793750 1558.10 234
220.793750 1575.86 235
220.793750 1588.52 236
220.793750 1657.13 237
220.793750 52.93 238
220.793750 63.02 239
220.793750 83.39 240
220.793750 102.43 241
220.793750 111.49 242
220.793750 120.65 243
220.793750 139.05 244
220.793750 145.49 245
220.793750 147.79 246
220.793750 160.15 247
220.793750 165.58 248
220.793750 174.84 249
220.793750 191.36 250
220.793750 194.68 251
220.793750 197.24 252
220.793750 201.74 253
220.793750 208.96 254
220.793750 231.03 255
220.793750 241.64 256
220.793750 257.84 257
220.793750 264.57 258
220.793750 277.14 259
220.793750 283.11 260
220.793750 291.10 261
220.793750 309.11 262
220.793750 319.41 263
220.793750 333.62 264
220.793750 341.40 265
220.793750 348.40 266
220.793750 360.36 267
220.793750 363.71 268
220.793750 370.53 269
220.793750 373.85 270
220.793750 385.14 271
220.793750 392.33 272
220.793750 410.30 273
220.793750 710.09 274
220.793750 712.10 275
220.793750 716.91 276
220.793750 718.11 277
220.793750 733.92 278
220.793750 735.02 279
220.793750 737.95 280
220.793750 739.95 281
220.793750 870.97 282
220.793750 873.62 283
220.793750 875.38 284
220.793750 878.90 285
220.793750 1131.74 286
220.793750 1132.27 287
220.793750 1132.91 288
220.793750 1133.23 289
220.793750 1477.99 290
220.793750 1494.89 291
220.793750 1500.90 292
220.793750 1508.01 293
220.793750 1564.85 294
220.793750 1579.46 295
220.793750 1605.22 296
220.793750 1633.03 297
220.793750 52.93 298
220.793750 63.02 299
220.793750 83.39 300
220.793750 102.43 301
220.793750 111.49 302
220.793750 120.65 303
220.793750 139.05 304
220.793750 145.49 305
220.793750 147.79 306
220.793750 160.15 307
220.793750 165.58 308
220.793750 174.84 309
220.793750 191.36 310
220.793750 194.68 311
220.793750 197.24 312
220.793750 201.74 313
220.793750 208.96 314
220.793750 231.03 315
220.793750 241.64 316
220.793750 257.84 317
220.793750 264.57 318
220.793750 277.14 319
220.793750 283.11 320
220.793750 291.10 321
220.793750 309.11 322
220.793750 319.41 323
220.793750 333.62 324
220.793750 341.40 325
220.793750 348.40 326
220.793750 360.36 327
220.793750 363.71 328
220.793750 370.53 329
220.793750 373.85 330
220.793750 385.14 331
220.793750 392.33 332
220.793750 410.30 333
220.793750 710.09 334
220.793750 712.10 335
220.793750 716.91 336
220.793750 718.11 337
220.793750 733.92 338
220.793750 735.02 339
220.793750 737.95 340
220.793750 739.95 341
220.793750 870.97 342
220.793750 873.62 343
220.793750 875.38 344
220.793750 878.90 345
220.793750 1131.74 346
220.793750 1132.27 347
220.793750 1132.91 348
220.793750 1133.23 349
220.793750 1477.99 350
220.793750 1494.89 351
220.793750 1500.90 352
220.793750 1508.01 353
220.793750 1564.85 354
220.793750 1579.46 355
220.793750 1605.22 356
220.793750 1633.03 357
220.793750 62.73 358
220.793750 89.42 359
220.793750 91.86 360
220.793750 95.56 361
220.793750 125.91 362
220.793750 128.71 363
220.793750 132.19 364
220.793750 136.91 365
220.793750 160.52 366
220.793750 162.99 367
220.793750 174.54 368
220.793750 177.94 369
220.793750 196.50 370
220.793750 196.70 371
220.793750 212.55 372
220.793750 213.06 373
220.793750 226.26 374
220.793750 235.33 375
220.793750 238.43 376
220.793750 252.41 377
220.793750 271.02 378
220.793750 276.31 379
220.793750 282.10 380
220.793750 292.36 381
220.793750 312.46 382
220.793750 325.20 383
220.793750 331.08 384
220.793750 333.53 385
220.793750 353.45 386
220.793750 354.94 387
220.793750 366.45 388
220.793750 367.80 389
220.793750 370.38 390
220.793750 384.39 391
220.793750 389.27 392
220.793750 391.39 393
220.793750 711.43 394
220.793750 714.75 395
220.793750 715.33 396
220.793750 717.97 397
220.793750 732.27 398
220.793750 732.41 399
220.793750 737.49 400
220.793750 738.59 401
220.793750 868.71 402
220.793750 871.06 403
220.793750 875.68 404
220.793750 877.76 405
220.793750 1129.98 406
220.793750 1130.35 407
220.793750 1131.27 408
220.793750 1132.52 409
220.793750 1486.83 410
220.793750 1493.65 411
220.793750 1526.62 412
220.793750 1543.18 413
220.793750 1551.38 414
220.793750 1553.34 415
220.793750 1615.92 416
220.793750 1640.67 417
220.793750 67.92 418
220.793750 73.40 419
220.793750 82.02 420
220.793750 93.73 421
220.793750 131.24 422
220.793750 140.93 423
220.793750 149.02 424
220.793750 154.16 425
220.793750 160.24 426
220.793750 171.23 427
220.793750 176.15 428
220.793750 188.04 429
220.793750 189.86 430
220.793750 195.25 431
220.793750 202.54 432
220.793750 206.71 433
220.793750 217.52 434
220.793750 230.27 435
220.793750 238.01 436
220.793750 251.50 437
220.793750 256.05 438
220.793750 269.69 439
220.793750 278.16 440
220.793750 285.35 441
220.793750 323.17 442
220.793750 332.91 443
220.793750 336.95 444
220.793750 344.46 445
220.793750 351.15 446
220.793750 355.57 447
220.793750 357.80 448
220.793750 366.14 449
220.793750 371.04 450
220.793750 377.54 451
220.793750 390.90 452
220.793750 392.44 453
220.793750 712.43 454
220.793750 713.74 455
220.793750 715.91 456
220.793750 716.37 457
220.793750 732.74 458
220.793750 733.30 459
220.793750 737.43 460
220.793750 738.02 461
220.793750 871.34 462
220.793750 873.28 463
220.793750 874.66 464
220.793750 876.66 465
220.793750 1130.37 466
220.793750 1130.67 467
220.793750 1130.88 468
220.793750 1131.62 469
220.793750 1493.37 470
220.793750 1499.94 471
220.793750 1512.76 472
220.793750 1517.92 473
220.793750 1571.26 474
220.793750 1585.18 475
220.793750 1602.03 476
220.793750 1621.98 477
220.793750 67.92 478
220.793750 73.40 479
220.793750 82.02 480
220.793750 93.73 481
220.793750 131.24 482
220.793750 140.93 483
220.793750 149.02 484
220.793750 154.16 485
220.793750 160.24 486
220.793750 171.23 487
220.793750 176.15 488
220.793750 188.04 489
220.793750 189.86 490
220.793750 195.25 491
220.793750 202.54 492
220.793750 206.71 493
220.793750 217.52 494
220.793750 230.27 495
220.793750 238.01 496
220.793750 251.50 497
220.793750 256.05 498
220.793750 269.69 499
220.793750 278.16 500
220.793750 285.35 501
220.793750 323.17 502
220.793750 332.91 503
220.793750 336.95 504
220.793750 344.46 505
220.793750 351.15 506
220.793750 355.57 507
220.793750 357.80 508
220.793750 366.14 509
220.793750 371.04 510
220.793750 377.54 511
220.793750 390.90 512
220.793750 392.44 513
220.793750 712.43 514
220.793750 713.74 515
220.793750 715.91 516
220.793750 716.37 517
220.793750 732.74 518
220.793750 733.30 519
220.793750 737.43 520
220.793750 738.02 521
220.793750 871.34 522
220.793750 873.28 523
220.793750 874.66 524
220.793750 876.66 525
220.793750 1130.37 526
220.793750 1130.67 527
220.793750 1130.88 528
220.793750 1131.62 529
220.793750 1493.37 530
220.793750 1499.94 531
220.793750 1512.76 532
220.793750 1517.92 533
220.793750 1571.26 534
220.793750 1585.18 535
220.793750 1602.03 536
220.793750 1621.98 537
220.793750 62.73 538
220.793750 89.42 539
220.793750 91.86 540
220.793750 95.56 541
220.793750 125.91 542
220.793750 128.71 543
220.793750 132.19 544
220.793750 136.91 545
220.793750 160.52 546
220.793750 162.99 547
220.793750 174.54 548
220.793750 177.94 549
220.793750 196.50 550
220.793750 196.70 551
220.793750 212.55 552
220.793750 213.06 553
220.793750 226.26 554
220.793750 235.33 555
220.793750 238.43 556
220.793750 252.41 557
220.793750 271.02 558
220.793750 276.31 559
220.793750 282.10 560
220.793750 292.36 561
220.793750 312.46 562
220.793750 325.20 563
220.793750 331.08 564
220.793750 333.53 565
220.793750 353.45 566
220.793750 354.94 567
220.793750 366.45 568
220.793750 367.80 569
220.793750 370.38 570
220.793750 384.39 571
220.793750 389.27 572
220.793750 391.39 573
220.793750 711.43 574
220.793750 714.75 575
220.793750 715.33 576
220.793750 717.97 577
220.793750 732.27 578
220.793750 732.41 579
220.793750 737.49 580
220.793750 738.59 581
220.793750 868.71 582
220.793750 871.06 583
220.793750 875.68 584
220.793750 877.76 585
220.793750 1129.98 586
220.793750 1130.35 587
220.793750 1131.27 588
220.793750 1132.52 589
220.793750 1486.83 590
220.793750 1493.65 591
220.793750 1526.62 592
220.793750 1543.18 593
220.793750 1551.38 594
220.793750 1553.34 595
220.793750 1615.92 596
220.793750 1640.67 597
220.793750 67.92 598
220.793750 73.40 599
220.793750 82.02 600
220.793750 93.73 601
220.793750 131.24 602
220.793750 140.93 603
220.793750 149.02 604
220.793750 154.16 605
220.793750 160.24 606
220.793750 171.23 607
220.793750 176.15 608
220.793750 188.04 609
220.793750 189.86 610
220.793750 195.25 611
220.793750 202.54 612
220.793750 206.71 613
220.793750 217.52 614
220.793750 230.27 615
220.793750 238.01 616
220.793750 251.50 617
220.793750 256.05 618
220.793750 269.69 619
220.793750 278.16 620
220.793750 285.35 621
220.793750 323.17 622
220.793750 332.91 623
220.793750 336.95 624
220.793750 344.46 625
220.793750 351.15 626
220.793750 355.57 627
220.793750 357.80 628
220.793750 366.14 629
220.793750 371.04 630
220.793750 377.54 631
220.793750 390.90 632
220.793750 392.44 633
220.793750 712.43 634
220.793750 713.74 635
220.793750 715.91 636
220.793750 716.37 637
220.793750 732.74 638
220.793750 733.30 639
220.793750 737.43 640
220.793750 738.02 641
220.793750 871.34 642
220.793750 873.28 643
220.793750 874.66 644
220.793750 876.66 645
220.793750 1130.37 646
220.793750 1130.67 647
220.793750 1130.88 648
220.793750 1131.62 649
220.793750 1493.37 650
220.793750 1499.94 651
220.793750 1512.76 652
220.793750 1517.92 653
220.793750 1571.26 654
220.793750 1585.18 655
220.793750 1602.03 656
220.793750 1621.98 657
220.793750 67.92 658
220.793750 73.40 659
220.793750 82.02 660
220.793750 93.73 661
220.793750 131.24 662
220.793750 140.93 663
220.793750 149.02 664
220.793750 154.16 665
220.793750 160.24 666
220.793750 171.23 667
220.793750 176.15 668
220.793750 188.04 669
220.793750 189.86 670
220.793750 195.25 671
220.793750 202.54 672
220.793750 206.71 673
220.793750 217.52 674
220.793750 230.27 675
220.793750 238.01 676
220.793750 251.50 677
220.793750 256.05 678
220.793750 269.69 679
220.793750 278.16 680
220.793750 285.35 681
220.793750 323.17 682
220.793750 332.91 683
220.793750 336.95 684
220.793750 344.46 685
220.793750 351.15 686
220.793750 355.57 687
220.793750 357.80 688
220.793750 366.14 689
220.793750 371.04 690
220.793750 377.54 691
220.793750 390.90 692
220.793750 392.44 693
220.793750 712.43 694
220.793750 713.74 695
220.793750 715.91 696
220.793750 716.37 697
220.793750 732.74 698
220.793750 733.30 699
220.793750 737.43 700
220.793750 738.02 701
220.793750 871.34 702
220.793750 873.28 703
220.793750 874.66 704
220.793750 876.66 705
220.793750 1130.37 706
220.793750 1130.67 707
220.793750 1130.88 708
220.793750 1131.62 709
220.793750 1493.37 710
220.793750 1499.94 711
220.793750 1512.76 712
220.793750 1517.92 713
220.793750 1571.26 714
220.793750 1585.18 715
220.793750 1602.03 716
220.793750 1621.98 717
220.793750 26.09 718
220.793750 64.03 719
220.793750 86.33 720
220.793750 105.42 721
220.793750 113.31 722
220.793750 126.29 723
220.793750 126.82 724
220.793750 142.31 725
220.793750 142.99 726
220.793750 152.90 727
220.793750 154.34 728
220.793750 172.95 729
220.793750 181.99 730
220.793750 189.01 731
220.793750 197.95 732
220.793750 204.21 733
220.793750 216.13 734
220.793750 222.67 735
220.793750 246.77 736
220.793750 264.29 737
220.793750 270.38 738
220.793750 278.94 739
220.793750 296.00 740
220.793750 297.98 741
220.793750 314.90 742
220.793750 322.32 743
220.793750 323.84 744
220.793750 342.06 745
220.793750 344.24 746
220.793750 357.48 747
220.793750 361.59 748
220.793750 367.82 749
220.793750 372.60 750
220.793750 387.13 751
220.793750 388.46 752
220.793750 427.23 753
220.793750 707.86 754
220.793750 710.25 755
220.793750 716.79 756
220.793750 718.63 757
220.793750 734.13 758
220.793750 736.00 759
220.793750 737.89 760
220.793750 740.38 761
220.793750 866.75 762
220.793750 872.86 763
220.793750 874.44 764
220.793750 879.94 765
220.793750 1131.53 766
220.793750 1132.09 767
220.793750 1133.17 768
220.793750 1133.49 769
220.793750 1471.32 770
220.793750 1492.12 771
220.793750 1506.51 772
220.793750 1536.51 773
220.793750 1558.10 774
220.793750 1575.86 775
220.793750 1588.52 776
220.793750 1657.13 777
220.793750 52.93 778
220.793750 63.02 779
220.793750 83.39 780
220.793750 102.43 781
220.793750 111.49 782
220.793750 120.65 783
220.793750 139.05 784
220.793750 145.49 785
220.793750 147.79 786
220.793750 160.15 787
220.793750 165.58 788
220.793750 174.84 789
220.793750 191.36 790
220.793750 194.68 791
220.793750 197.24 792
220.793750 201.74 793
220.793750 208.96 794
220.793750 231.03 795
220.793750 241.64 796
220.793750 257.84 797
220.793750 264.57 798
220.793750 277.14 799
220.793750 283.11 800
220.793750 291.10 801
220.793750 309.11 802
220.793750 319.41 803
220.793750 333.62 804
220.793750 341.40 805
220.793750 348.40 806
220.793750 360.36 807
220.793750 363.71 808
220.793750 370.53 809
220.793750 373.85 810
220.793750 385.14 811
220.793750 392.33 812
220.793750 410.30 813
220.793750 710.09 814
220.793750 712.10 815
220.793750 716.91 816
220.793750 718.11 817
220.793750 733.92 818
220.793750 735.02 819
220.793750 737.95 820
220.793750 739.95 821
220.793750 870.97 822
220.793750 873.62 823
220.793750 875.38 824
220.793750 878.90 825
220.793750 1131.74 826
220.793750 1132.27 827
220.793750 1132.91 828
220.793750 1133.23 829
220.793750 1477.99 830
220.793750 1494.89 831
220.793750 1500.90 832
220.793750 1508.01 833
220.793750 1564.85 834
220.793750 1579.46 835
220.793750 1605.22 836
220.793750 1633.03 837
220.793750 52.93 838
220.793750 63.02 839
220.793750 83.39 840
220.793750 102.43 841
220.793750 111.49 842
220.793750 120.65 843
220.793750 139.05 844
220.793750 145.49 845
220.793750 147.79 846
220.793750 160.15 847
220.793750 165.58 848
220.793750 174.84 849
220.793750 191.36 850
220.793750 194.68 851
220.793750 197.24 852
220.793750 201.74 853
220.793750 208.96 854
220.793750 231.03 855
220.793750 241.64 856
220.793750 257.84 857
220.793750 264.57 858
220.793750 277.14 859
220.793750 283.11 860
220.793750 291.10 861
220.793750 309.11 862
220.793750 319.41 863
220.793750 333.62 864
220.793750 341.40 865
220.793750 348.40 866
220.793750 360.36 867
220.793750 363.71 868
220.793750 370.53 869
220.793750 373.85 870
220.793750 385.14 871
220.793750 392.33 872
220.793750 410.30 873
220.793750 710.09 874
220.793750 712.10 875
220.793750 716.91 876
220.793750 718.11 877
220.793750 733.92 878
220.793750 735.02 879
220.793750 737.95 880
220.793750 739.95 881
220.793750 870.97 882
220.793750 873.62 883
220.793750 875.38 884
220.793750 878.90 885
220.793750 1131.74 886
220.793750 1132.27 887
220.793750 1132.91 888
220.793750 1133.23 889
220.793750 1477.99 890
220.793750 1494.89 891
220.793750 1500.90 892
220.793750 1508.01 893
220.793750 1564.85 894
220.793750 1579.46 895
220.793750 1605.22 896
220.793750 1633.03 897
220.793750 -22.12 898
220.793750 44.83 899
220.793750 81.07 900
220.793750 85.32 901
220.793750 95.33 902
220.793750 117.62 903
220.793750 131.32 904
220.793750 138.56 905
220.793750 145.89 906
220.793750 159.54 907
220.793750 162.31 908
220.793750 170.29 909
220.793750 185.75 910
220.793750 188.78 911
220.793750 199.93 912
220.793750 200.98 913
220.793750 209.87 914
220.793750 221.23 915
220.793750 236.94 916
220.793750 252.64 917
220.793750 264.90 918
220.793750 275.26 919
220.793750 296.24 920
220.793750 312.47 921
220.793750 316.10 922
220.793750 326.72 923
220.793750 330.46 924
220.793750 339.25 925
220.793750 349.12 926
220.793750 354.91 927
220.793750 361.35 928
220.793750 368.68 929
220.793750 374.77 930
220.793750 381.23 931
220.793750 392.03 932
220.793750 429.68 933
220.793750 708.08 934
220.793750 708.19 935
220.793750 716.84 936
220.793750 717.57 937
220.793750 733.52 938
220.793750 736.24 939
220.793750 739.50 940
220.793750 742.79 941
220.793750 873.00 942
220.793750 876.18 943
220.793750 876.53 944
220.793750 881.33 945
220.793750 1132.06 946
220.793750 1132.79 947
220.793750 1133.99 948
220.793750 1135.37 949
220.793750 1467.81 950
220.793750 1483.28 951
220.793750 1490.81 952
220.793750 1503.35 953
220.793750 1561.03 954
220.793750 1568.07 955
220.793750 1602.84 956
220.793750 1609.86 957
220.793750 46.28 958
220.793750 61.49 959
220.793750 93.31 960
220.793750 103.52 961
220.793750 109.73 962
220.793750 125.35 963
220.793750 128.04 964
220.793750 132.16 965
220.793750 148.21 966
220.793750 153.63 967
220.793750 160.80 968
220.793750 169.58 969
220.793750 177.81 970
220.793750 191.44 971
220.793750 204.11 972
220.793750 206.74 973
220.793750 220.99 974
220.793750 221.75 975
220.793750 234.06 976
220.793750 242.94 977
220.793750 261.82 978
220.793750 268.02 979
220.793750 282.86 980
220.793750 290.88 981
220.793750 312.00 982
220.793750 332.90 983
220.793750 335.15 984
220.793750 340.38 985
220.793750 343.32 986
220.793750 357.91 987
220.793750 370.16 988
220.793750 371.53 989
220.793750 377.05 990
220.793750 382.03 991
220.793750 400.92 992
220.793750 415.53 993
220.793750 709.24 994
220.793750 711.69 995
220.793750 714.11 996
220.793750 716.53 997
220.793750 734.57 998
220.793750 735.67 999
220.793750 740.83 1000
220.793750 742.32 1001
220.793750 869.38 1002
220.793750 878.18 1003
220.793750 879.78 1004
220.793750 881.11 1005
220.793750 1132.37 1006
220.793750 1132.77 1007
220.793750 1134.55 1008
220.793750 1134.92 1009
220.793750 1469.70 1010
220.793750 1476.25 1011
220.793750 1492.01 1012
220.793750 1504.57 1013
220.793750 1557.28 1014
220.793750 1563.36 1015
220.793750 1593.20 1016
220.793750 1643.65 1017
220.793750 54.39 1018
220.793750 56.17 1019
220.793750 70.71 1020
220.793750 96.87 1021
220.793750 99.35 1022
220.793750 111.77 1023
220.793750 126.70 1024
220.793750 137.90 1025
220.793750 146.98 1026
220.793750 166.42 1027
220.793750 166.84 1028
220.793750 178.31 1029
220.793750 185.98 1030
220.793750 193.55 1031
220.793750 196.82 1032
220.793750 203.47 1033
220.793750 215.88 1034
220.793750 234.01 1035
220.793750 240.56 1036
220.793750 246.02 1037
220.793750 254.55 1038
220.793750 269.38 1039
220.793750 278.81 1040
220.793750 291.72 1041
220.793750 317.84 1042
220.793750 321.57 1043
220.793750 328.02 1044
220.793750 335.96 1045
220.793750 353.92 1046
220.793750 356.90 1047
220.793750 366.08 1048
220.793750 373.59 1049
220.793750 375.90 1050
220.793750 381.82 1051
220.793750 391.25 1052
220.793750 433.11 1053
220.793750 706.76 1054
220.793750 707.96 1055
220.793750 717.39 1056
220.793750 718.15 1057
220.793750 734.08 1058
220.793750 734.92 1059
220.793750 740.93 1060
220.793750 742.63 1061
220.793750 873.38 1062
220.793750 874.49 1063
220.793750 883.28 1064
220.793750 891.54 1065
220.793750 1131.99 1066
220.793750 1133.00 1067
220.793750 1134.29 1068
220.793750 1135.15 1069
220.793750 1465.25 1070
220.793750 1469.11 1071
220.793750 1494.37 1072
220.793750 1494.79 1073
220.793750 1539.84 1074
220.793750 1563.29 1075
220.793750 1579.35 1076
220.793750 1627.48 1077
220.793750 69.02 1078
220.793750 83.57 1079
220.793750 95.35 1080
220.793750 104.61 1081
220.793750 119.18 1082
220.793750 125.56 1083
220.793750 131.58 1084
220.793750 140.32 1085
220.793750 148.15 1086
220.793750 150.74 1087
220.793750 156.23 1088
220.793750 171.31 1089
220.793750 184.99 1090
220.793750 188.96 1091
220.793750 195.34 1092
220.793750 200.22 1093
220.793750 214.75 1094
220.793750 218.50 1095
220.793750 236.28 1096
220.793750 243.91 1097
220.793750 268.59 1098
220.793750 283.51 1099
220.793750 294.28 1100
220.793750 299.79 1101
220.793750 311.56 1102
220.793750 321.98 1103
220.793750 337.29 1104
220.793750 343.94 1105
220.793750 349.92 1106
220.793750 353.02 1107
220.793750 366.43 1108
220.793750 370.39 1109
220.793750 373.51 1110
220.793750 382.11 1111
220.793750 390.39 1112
220.793750 429.47 1113
220.793750 709.30 1114
220.793750 710.17 1115
220.793750 717.12 1116
220.793750 717.43 1117
220.793750 733.12 1118
220.793750 734.70 1119
220.793750 737.62 1120
220.793750 740.45 1121
220.793750 870.05 1122
220.793750 873.41 1123
220.793750 876.19 1124
220.793750 880.12 1125
220.793750 1131.36 1126
220.793750 1131.52 1127
220.793750 1133.24 1128
220.793750 1134.05 1129
220.793750 1468.35 1130
220.793750 1487.47 1131
220.793750 1502.70 1132
220.793750 1524.58 1133
220.793750 1554.09 1134
220.793750 1568.48 1135
220.793750 1598.76 1136
220.793750 1633.55 1137
220.793750 60.88 1138
220.793750 80.71 1139
220.793750 88.40 1140
220.793750 104.24 1141
220.793750 117.00 1142
220.793750 119.11 1143
220.793750 130.24 1144
220.793750 142.19 1145
220.793750 149.51 1146
220.793750 153.23 1147
220.793750 170.31 1148
220.793750 177.86 1149
220.793750 180.90 1150
220.793750 193.01 1151
220.793750 202.16 1152
220.793750 210.44 1153
220.793750 218.96 1154
220.793750 226.12 1155
220.793750 237.16 1156
220.793750 255.85 1157
220.793750 259.77 1158
220.793750 269.05 1159
220.793750 283.87 1160
220.793750 296.94 1161
220.793750 307.81 1162
220.793750 322.53 1163
220.793750 337.69 1164
220.793750 342.60 1165
220.793750 350.66 1166
220.793750 359.74 1167
220.793750 365.44 1168
220.793750 368.38 1169
220.793750 383.06 1170
220.793750 384.70 1171
220.793750 392.90 1172
220.793750 399.01 1173
220.793750 710.11 1174
220.793750 713.33 1175
220.793750 715.06 1176
220.793750 718.03 1177
220.793750 732.95 1178
220.793750 734.38 1179
220.793750 738.50 1180
220.793750 740.50 1181
220.793750 869.71 1182
220.793750 877.36 1183
220.793750 877.84 1184
220.793750 878.49 1185
220.793750 1131.23 1186
220.793750 1131.88 1187
220.793750 1133.40 1188
220.793750 1133.81 1189
220.793750 1475.28 1190
220.793750 1487.07 1191
220.793750 1496.10 1192
220.793750 1519.30 1193
220.793750 1555.14 1194
220.793750 1568.94 1195
220.793750 1593.12 1196
220.793750 1639.08 1197
220.793750 44.61 1198
220.793750 69.22 1199
220.793750 75.78 1200
220.793750 106.59 1201
220.793750 117.69 1202
220.793750 123.64 1203
220.793750 135.33 1204
220.793750 136.56 1205
220.793750 155.11 1206
220.793750 158.26 1207
220.793750 170.46 1208
220.793750 179.36 1209
220.793750 191.04 1210
220.793750 201.29 1211
220.793750 202.78 1212
220.793750 205.77 1213
220.793750 217.05 1214
220.793750 219.11 1215
220.793750 230.22 1216
220.793750 250.11 1217
220.793750 270.54 1218
220.793750 281.78 1219
220.793750 285.36 1220
220.793750 296.92 1221
220.793750 305.85 1222
220.793750 324.22 1223
220.793750 331.16 1224
220.793750 334.12 1225
220.793750 348.76 1226
220.793750 359.42 1227
220.793750 362.03 1228
220.793750 369.05 1229
220.793750 375.08 1230
220.793750 385.24 1231
220.793750 389.16 1232
220.793750 415.96 1233
220.793750 708.42 1234
220.793750 710.38 1235
220.793750 717.98 1236
220.793750 718.72 1237
220.793750 733.39 1238
220.793750 733.73 1239
220.793750 738.85 1240
220.793750 740.43 1241
220.793750 873.54 1242
220.793750 873.89 1243
220.793750 879.36 1244
220.793750 881.19 1245
220.793750 1131.19 1246
220.793750 1131.98 1247
220.793750 1133.14 1248
220.793750 1133.75 1249
220.793750 1471.62 1250
220.793750 1487.06 1251
220.793750 1510.72 1252
220.793750 1522.68 1253
220.793750 1548.13 1254
220.793750 1560.92 1255
220.793750 1587.98 1256
220.793750 1623.90 1257
220.793750 81.25 1258
220.793750 85.74 1259
220.793750 97.22 1260
220.793750 104.01 1261
220.793750 127.03 1262
220.793750 131.89 1263
220.793750 135.82 1264
220.793750 140.57 1265
220.793750 154.53 1266
220.793750 166.74 1267
220.793750 169.20 1268
220.793750 177.56 1269
220.793750 182.46 1270
220.793750 188.37 1271
220.793750 200.10 1272
220.793750 204.89 1273
220.793750 215.20 1274
220.793750 225.35 1275
220.793750 249.98 1276
220.793750 265.09 1277
220.793750 272.59 1278
220.793750 274.22 1279
220.793750 286.83 1280
220.793750 291.92 1281
220.793750 307.81 1282
220.793750 324.15 1283
220.793750 336.29 1284
220.793750 347.52 1285
220.793750 354.75 1286
220.793750 361.03 1287
220.793750 366.21 1288
220.793750 367.77 1289
220.793750 375.78 1290
220.793750 386.24 1291
220.793750 389.03 1292
220.793750 395.74 1293
220.793750 712.42 1294
220.793750 712.81 1295
220.793750 715.44 1296
220.793750 716.39 1297
220.793750 732.03 1298
220.793750 732.33 1299
220.793750 737.51 1300
220.793750 739.00 1301
220.793750 869.26 1302
220.793750 871.08 1303
220.793750 876.16 1304
220.793750 877.70 1305
220.793750 1129.61 1306
220.793750 1130.05 1307
220.793750 1131.83 1308
220.793750 1132.48 1309
220.793750 1479.80 1310
220.793750 1486.45 1311
220.793750 1525.08 1312
220.793750 1534.58 1313
220.793750 1546.92 1314
220.793750 1554.17 1315
220.793750 1619.07 1316
220.793750 1635.27 1317
220.793750 63.24 1318
220.793750 85.36 1319
220.793750 96.96 1320
220.793750 112.72 1321
220.793750 124.43 1322
220.793750 133.10 1323
220.793750 139.06 1324
220.793750 148.49 1325
220.793750 160.39 1326
220.793750 166.01 1327
220.793750 169.38 1328
220.793750 177.12 1329
220.793750 178.76 1330
220.793750 192.72 1331
220.793750 205.50 1332
220.793750 210.35 1333
220.793750 216.13 1334
220.793750 224.64 1335
220.793750 245.55 1336
220.793750 251.28 1337
220.793750 264.07 1338
220.793750 272.66 1339
220.793750 284.30 1340
220.793750 306.36 1341
220.793750 314.78 1342
220.793750 324.39 1343
220.793750 339.57 1344
220.793750 347.37 1345
220.793750 348.39 1346
220.793750 361.10 1347
220.793750 364.39 1348
220.793750 366.49 1349
220.793750 374.57 1350
220.793750 380.17 1351
220.793750 389.21 1352
220.793750 390.13 1353
220.793750 711.72 1354
220.793750 713.35 1355
220.793750 715.89 1356
220.793750 716.85 1357
220.793750 731.74 1358
220.793750 732.26 1359
220.793750 737.78 1360
220.793750 739.18 1361
220.793750 871.17 1362
220.793750 874.00 1363
220.793750 875.84 1364
220.793750 876.04 1365
220.793750 1129.70 1366
220.793750 1130.35 1367
220.793750 1131.62 1368
220.793750 1132.04 1369
220.793750 1483.73 1370
220.793750 1488.05 1371
220.793750 1518.70 1372
220.793750 1527.75 1373
220.793750 1558.58 1374
220.793750 1565.85 1375
220.793750 1608.16 1376
220.793750 1626.92 1377
220.793750 77.49 1378
220.793750 87.96 1379
220.793750 101.23 1380
220.793750 108.09 1381
220.793750 120.69 1382
220.793750 129.65 1383
220.793750 135.66 1384
220.793750 149.10 1385
220.793750 151.46 1386
220.793750 168.64 1387
220.793750 172.48 1388
220.793750 180.56 1389
220.793750 193.57 1390
220.793750 199.31 1391
220.793750 208.43 1392
220.793750 210.26 1393
220.793750 214.79 1394
220.793750 223.22 1395
220.793750 244.44 1396
220.793750 258.74 1397
220.793750 266.40 1398
220.793750 274.63 1399
220.793750 287.54 1400
220.793750 290.44 1401
220.793750 313.46 1402
220.793750 331.75 1403
220.793750 335.08 1404
220.793750 340.65 1405
220.793750 343.88 1406
220.793750 356.73 1407
220.793750 361.75 1408
220.793750 369.42 1409
220.793750 375.42 1410
220.793750 381.03 1411
220.793750 387.82 1412
220.793750 392.75 1413
220.793750 711.67 1414
220.793750 712.98 1415
220.793750 717.42 1416
220.793750 718.30 1417
220.793750 731.49 1418
220.793750 731.75 1419
220.793750 737.24 1420
220.793750 737.68 1421
220.793750 872.53 1422
220.793750 872.98 1423
220.793750 874.77 1424
220.793750 877.37 1425
220.793750 1130.12 1426
220.793750 1130.35 1427
220.793750 1131.32 1428
220.793750 1131.72 1429
220.793750 1482.76 1430
220.793750 1488.24 1431
220.793750 1529.36 1432
220.793750 1535.00 1433
220.793750 1558.54 1434
220.793750 1565.15 1435
220.793750 1604.30 1436
220.793750 1616.46 1437
220.793750 81.25 1438
220.793750 85.74 1439
220.793750 97.22 1440
220.793750 104.01 1441
220.793750 127.03 1442
220.793750 131.89 1443
220.793750 135.82 1444
220.793750 140.57 1445
220.793750 154.53 1446
220.793750 166.74 1447
220.793750 169.20 1448
220.793750 177.56 1449
220.793750 182.46 1450
220.793750 188.37 1451
220.793750 200.10 1452
220.793750 204.89 1453
220.793750 215.20 1454
220.793750 225.35 1455
220.793750 249.98 1456
220.793750 265.09 1457
220.793750 272.59 1458
220.793750 274.22 1459
220.793750 286.83 1460
220.793750 291.92 1461
220.793750 307.81 1462
220.793750 324.15 1463
220.793750 336.29 1464
220.793750 347.52 1465
220.793750 354.75 1466
220.793750 361.03 1467
220.793750 366.21 1468
220.793750 367.77 1469
220.793750 375.78 1470
220.793750 386.24 1471
220.793750 389.03 1472
220.793750 395.74 1473
220.793750 712.42 1474
220.793750 712.81 1475
220.793750 715.44 1476
220.793750 716.39 1477
220.793750 732.03 1478
220.793750 732.33 1479
220.793750 737.51 1480
220.793750 739.00 1481
220.793750 869.26 1482
220.793750 871.08 1483
220.793750 876.16 1484
220.793750 877.70 1485
220.793750 1129.61 1486
220.793750 1130.05 1487
220.793750 1131.83 1488
220.793750 1132.48 1489
220.793750 1479.80 1490
220.793750 1486.45 1491
220.793750 1525.08 1492
220.793750 1534.58 1493
220.793750 1546.92 1494
220.793750 1554.17 1495
220.793750 1619.07 1496
220.793750 1635.27 1497
220.793750 63.24 1498
220.793750 85.36 1499
220.793750 96.96 1500
220.793750 112.72 1501
220.793750 124.43 1502
220.793750 133.10 1503
220.793750 139.06 1504
220.793750 148.49 1505
220.793750 160.39 1506
220.793750 166.01 1507
220.793750 169.38 1508
220.793750 177.12 1509
220.793750 178.76 1510
220.793750 192.72 1511
220.793750 205.50 1512
220.793750 210.35 1513
220.793750 216.13 1514
220.793750 224.64 1515
220.793750 245.55 1516
220.793750 251.28 1517
220.793750 264.07 1518
220.793750 272.66 1519
220.793750 284.30 1520
220.793750 306.36 1521
220.793750 314.78 1522
220.793750 324.39 1523
220.793750 339.57 1524
220.793750 347.37 1525
220.793750 348.39 1526
220.793750 361.10 1527
220.793750 364.39 1528
220.793750 366.49 1529
220.793750 374.57 1530
220.793750 380.17 1531
220.793750 389.21 1532
220.793750 390.13 1533
220.793750 711.72 1534
220.793750 713.35 1535
220.793750 715.89 1536
220.793750 716.85 1537
220.793750 731.74 1538
220.793750 732.26 1539
220.793750 737.78 1540
220.793750 739.18 1541
220.793750 871.17 1542
220.793750 874.00 1543
220.793750 875.84 1544
220.793750 876.04 1545
220.793750 1129.70 1546
220.793750 1130.35 1547
220.793750 1131.62 1548
220.793750 1132.04 1549
220.793750 1483.73 1550
220.793750 1488.05 1551
220.793750 1518.70 1552
220.793750 1527.75 1553
220.793750 1558.58 1554
220.793750 1565.85 1555
220.793750 1608.16 1556
220.793750 1626.92 1557
220.793750 77.49 1558
220.793750 87.96 1559
220.793750 101.23 1560
220.793750 108.09 1561
220.793750 120.69 1562
220.793750 129.65 1563
220.793750 135.66 1564
220.793750 149.10 1565
220.793750 151.46 1566
220.793750 168.64 1567
220.793750 172.48 1568
220.793750 180.56 1569
220.793750 193.57 1570
220.793750 199.31 1571
220.793750 208.43 1572
220.793750 210.26 1573
220.793750 214.79 1574
220.793750 223.22 1575
220.793750 244.44 1576
220.793750 258.74 1577
220.793750 266.40 1578
220.793750 274.63 1579
220.793750 287.54 1580
220.793750 290.44 1581
220.793750 313.46 1582
220.793750 331.75 1583
220.793750 335.08 1584
220.793750 340.65 1585
220.793750 343.88 1586
220.793750 356.73 1587
220.793750 361.75 1588
220.793750 369.42 1589
220.793750 375.42 1590
220.793750 381.03 1591
220.793750 387.82 1592
220.793750 392.75 1593
220.793750 711.67 1594
220.793750 712.98 1595
220.793750 717.42 1596
220.793750 718.30 1597
220.793750 731.49 1598
220.793750 731.75 1599
220.793750 737.24 1600
220.793750 737.68 1601
220.793750 872.53 1602
220.793750 872.98 1603
220.793750 874.77 1604
220.793750 877.37 1605
220.793750 1130.12 1606
220.793750 1130.35 1607
220.793750 1131.32 1608
220.793750 1131.72 1609
220.793750 1482.76 1610
220.793750 1488.24 1611
220.793750 1529.36 1612
220.793750 1535.00 1613
220.793750 1558.54 1614
220.793750 1565.15 1615
220.793750 1604.30 1616
220.793750 1616.46 1617
220.793750 69.02 1618
220.793750 83.57 1619
220.793750 95.35 1620
220.793750 104.61 1621
220.793750 119.18 1622
220.793750 125.56 1623
220.793750 131.58 1624
220.793750 140.32 1625
220.793750 148.15 1626
220.793750 150.74 1627
220.793750 156.23 1628
220.793750 171.31 1629
220.793750 184.99 1630
220.793750 188.96 1631
220.793750 195.34 1632
220.793750 200.22 1633
220.793750 214.75 1634
220.793750 218.50 1635
220.793750 236.28 1636
220.793750 243.91 1637
220.793750 268.59 1638
220.793750 283.51 1639
220.793750 294.28 1640
220.793750 299.79 1641
220.793750 311.56 1642
220.793750 321.98 1643
220.793750 337.29 1644
220.793750 343.94 1645
220.793750 349.92 1646
220.793750 353.02 1647
220.793750 366.43 1648
220.793750 370.39 1649
220.793750 373.51 1650
220.793750 382.11 1651
220.793750 390.39 1652
220.793750 429.47 1653
220.793750 709.30 1654
220.793750 710.17 1655
220.793750 717.12 1656
220.793750 717.43 1657
220.793750 733.12 1658
220.793750 734.70 1659
220.793750 737.62 1660
220.793750 740.45 1661
220.793750 870.05 1662
220.793750 873.41 1663
220.793750 876.19 1664
220.793750 880.12 1665
220.793750 1131.36 1666
220.793750 1131.52 1667
220.793750 1133.24 1668
220.793750 1134.05 1669
220.793750 1468.35 1670
220.793750 1487.47 1671
220.793750 1502.70 1672
220.793750 1524.58 1673
220.793750 1554.09 1674
220.793750 1568.48 1675
220.793750 1598.76 1676
220.793750 1633.55 1677
220.793750 60.88 1678
220.793750 80.71 1679
220.793750 88.40 1680
220.793750 104.24 1681
220.793750 117.00 1682
220.793750 119.11 1683
220.793750 130.24 1684
220.793750 142.19 1685
220.793750 149.51 1686
220.793750 153.23 1687
220.793750 170.31 1688
220.793750 177.86 1689
220.793750 180.90 1690
220.793750 193.01 1691
220.793750 202.16 1692
220.793750 210.44 1693
220.793750 218.96 1694
220.793750 226.12 1695
220.793750 237.16 1696
220.793750 255.85 1697
220.793750 259.77 1698
220.793750 269.05 1699
220.793750 283.87 1700
220.793750 296.94 1701
220.793750 307.81 1702
220.793750 322.53 1703
220.793750 337.69 1704
220.793750 342.60 1705
220.793750 350.66 1706
220.793750 359.74 1707
220.793750 365.44 1708
220.793750 368.38 1709
220.793750 383.06 1710
220.793750 384.70 1711
220.793750 392.90 1712
220.793750 399.01 1713
220.793750 710.11 1714
220.793750 713.33 1715
220.793750 715.06 1716
220.793750 718.03 1717
220.793750 732.95 1718
220.793750 734.38 1719
220.793750 738.50 1720
220.793750 740.50 1721
220.793750 869.71 1722
220.793750 877.36 1723
220.793750 877.84 1724
220.793750 878.49 1725
220.793750 1131.23 1726
220.793750 1131.88 1727
220.793750 1133.40 1728
220.793750 1133.81 1729
220.793750 1475.28 1730
220.793750 1487.07 1731
220.793750 1496.10 1732
220.793750 1519.30 1733
220.793750 1555.14 1734
220.793750 1568.94 1735
220.793750 1593.12 1736
220.793750 1639.08 1737
220.793750 44.61 1738
220.793750 69.22 1739
220.793750 75.78 1740
220.793750 106.59 1741
220.793750 117.69 1742
220.793750 123.64 1743
220.793750 135.33 1744
220.793750 136.56 1745
220.793750 155.11 1746
220.793750 158.26 1747
220.793750 170.46 1748
220.793750 179.36 1749
220.793750 191.04 1750
220.793750 201.29 1751
220.793750 202.78 1752
220.793750 205.77 1753
220.793750 217.05 1754
220.793750 219.11 1755
220.793750 230.22 1756
220.793750 250.11 1757
220.793750 270.54 1758
220.793750 281.78 1759
220.793750 285.36 1760
220.793750 296.92 1761
220.793750 305.85 1762
220.793750 324.22 1763
220.793750 331.16 1764
220.793750 334.12 1765
220.793750 348.76 1766
220.793750 359.42 1767
220.793750 362.03 1768
220.793750 369.05 1769
220.793750 375.08 1770
220.793750 385.24 1771
220.793750 389.16 1772
220.793750 415.96 1773
220.793750 708.42 1774
220.793750 710.38 1775
220.793750 717.98 1776
220.793750 718.72 1777
220.793750 733.39 1778
220.793750 733.73 1779
220.793750 738.85 1780
220.793750 740.43 1781
220.793750 873.54 1782
220.793750 873.89 1783
220.793750 879.36 1784
220.793750 881.19 1785
220.793750 1131.19 1786
220.793750 1131.98 1787
220.793750 1133.14 1788
220.793750 1133.75 1789
220.793750 1471.62 1790
220.793750 1487.06 1791
220.793750 1510.72 1792
220.793750 1522.68 1793
220.793750 1548.13 1794
220.793750 1560.92 1795
220.793750 1587.98 1796
220.793750 1623.90 1797
220.793750 11.03 1798
220.793750 70.38 1799
220.793750 70.89 1800
220.793750 96.19 1801
220.793750 104.78 1802
220.793750 126.05 1803
220.793750 129.06 1804
220.793750 130.47 1805
220.793750 140.21 1806
220.793750 148.36 1807
220.793750 148.69 1808
220.793750 179.84 1809
220.793750 190.26 1810
220.793750 204.33 1811
220.793750 207.99 1812
220.793750 208.10 1813
220.793750 214.04 1814
220.793750 228.90 1815
220.793750 235.06 1816
220.793750 237.63 1817
220.793750 247.61 1818
220.793750 265.86 1819
220.793750 298.32 1820
220.793750 318.22 1821
220.793750 321.67 1822
220.793750 332.61 1823
220.793750 340.82 1824
220.793750 343.16 1825
220.793750 345.37 1826
220.793750 356.53 1827
220.793750 360.46 1828
220.793750 362.95 1829
220.793750 378.98 1830
220.793750 387.88 1831
220.793750 390.25 1832
220.793750 395.60 1833
220.793750 708.72 1834
220.793750 712.66 1835
220.793750 713.33 1836
220.793750 716.63 1837
220.793750 733.49 1838
220.793750 736.23 1839
220.793750 740.30 1840
220.793750 742.49 1841
220.793750 872.59 1842
220.793750 876.59 1843
220.793750 880.25 1844
220.793750 880.44 1845
220.793750 1132.07 1846
220.793750 1132.09 1847
220.793750 1134.45 1848
220.793750 1135.58 1849
220.793750 1469.57 1850
220.793750 1485.20 1851
220.793750 1490.85 1852
220.793750 1509.11 1853
220.793750 1558.55 1854
220.793750 1561.45 1855
220.793750 1599.41 1856
220.793750 1601.96 1857
220.793750 49.04 1858
220.793750 80.01 1859
220.793750 87.37 1860
220.793750 103.00 1861
220.793750 103.77 1862
220.793750 115.75 1863
220.793750 123.31 1864
220.793750 129.26 1865
220.793750 152.72 1866
220.793750 169.02 1867
220.793750 182.07 1868
220.793750 182.44 1869
220.793750 189.47 1870
220.793750 189.81 1871
220.793750 197.19 1872
220.793750 211.53 1873
220.793750 212.66 1874
220.793750 220.23 1875
220.793750 232.47 1876
220.793750 233.06 1877
220.793750 256.44 1878
220.793750 262.85 1879
220.793750 266.68 1880
220.793750 290.47 1881
220.793750 325.37 1882
220.793750 328.36 1883
220.793750 337.85 1884
220.793750 346.34 1885
220.793750 346.36 1886
220.793750 353.63 1887
220.793750 362.17 1888
220.793750 363.23 1889
220.793750 374.74 1890
220.793750 384.26 1891
220.793750 407.73 1892
220.793750 414.40 1893
220.793750 707.58 1894
220.793750 708.39 1895
220.793750 717.32 1896
220.793750 717.61 1897
220.793750 733.65 1898
220.793750 734.99 1899
220.793750 741.47 1900
220.793750 742.38 1901
220.793750 872.42 1902
220.793750 876.23 1903
220.793750 886.15 1904
220.793750 886.47 1905
220.793750 1131.96 1906
220.793750 1132.12 1907
220.793750 1134.76 1908
220.793750 1135.21 1909
220.793750 1468.43 1910
220.793750 1475.41 1911
220.793750 1488.65 1912
220.793750 1500.75 1913
220.793750 1545.99 1914
220.793750 1551.77 1915
220.793750 1605.13 1916
220.793750 1609.86 1917
220.793750 49.04 1918
220.793750 80.01 1919
220.793750 87.37 1920
220.793750 103.00 1921
220.793750 103.77 1922
220.793750 115.75 1923
220.793750 123.31 1924
220.793750 129.26 1925
220.793750 152.72 1926
220.793750 169.02 1927
220.793750 182.07 1928
220.793750 182.44 1929
220.793750 189.47 1930
220.793750 189.81 1931
220.793750 197.19 1932
220.793750 211.53 1933
220.793750 212.66 1934
220.793750 220.23 1935
220.793750 232.47 1936
220.793750 233.06 1937
220.793750 256.44 1938
220.793750 262.85 1939
220.793750 266.68 1940
220.793750 290.47 1941
220.793750 325.37 1942
220.793750 328.36 1943
220.793750 337.85 1944
220.793750 346.34 1945
220.793750 346.36 1946
220.793750 353.63 1947
220.793750 362.17 1948
220.793750 363.23 1949
220.793750 374.74 1950
220.793750 384.26 1951
220.793750 407.73 1952
220.793750 414.40 1953
220.793750 707.58 1954
220.793750 708.39 1955
220.793750 717.32 1956
220.793750 717.61 1957
220.793750 733.65 1958
220.793750 734.99 1959
220.793750 741.47 1960
220.793750 742.38 1961
220.793750 872.42 1962
220.793750 876.23 1963
220.793750 886.15 1964
220.793750 886.47 1965
220.793750 1131.96 1966
220.793750 1132.12 1967
220.793750 1134.76 1968
220.793750 1135.21 1969
220.793750 1468.43 1970
220.793750 1475.41 1971
220.793750 1488.65 1972
220.793750 1500.75 1973
220.793750 1545.99 1974
220.793750 1551.77 1975
220.793750 1605.13 1976
220.793750 1609.86 1977
220.793750 81.61 1978
220.793750 90.22 1979
220.793750 101.21 1980
220.793750 114.17 1981
220.793750 119.13 1982
220.793750 126.84 1983
220.793750 130.82 1984
220.793750 132.01 1985
220.793750 141.89 1986
220.793750 144.64 1987
220.793750 155.29 1988
220.793750 171.10 1989
220.793750 175.36 1990
220.793750 189.15 1991
220.793750 192.48 1992
220.793750 208.23 1993
220.793750 217.44 1994
220.793750 219.09 1995
220.793750 244.90 1996
220.793750 257.33 1997
220.793750 261.75 1998
220.793750 267.59 1999
220.793750 297.53 2000
220.793750 299.89 2001
220.793750 311.97 2002
220.793750 327.24 2003
220.793750 339.28 2004
220.793750 349.53 2005
220.793750 352.84 2006
220.793750 359.57 2007
220.793750 361.96 2008
220.793750 367.47 2009
220.793750 376.29 2010
220.793750 384.82 2011
220.793750 398.38 2012
220.793750 403.81 2013
220.793750 709.58 2014
220.793750 713.24 2015
220.793750 714.39 2016
220.793750 717.05 2017
220.793750 732.49 2018
220.793750 733.69 2019
220.793750 738.87 2020
220.793750 740.64 2021
220.793750 870.97 2022
220.793750 874.37 2023
220.793750 879.10 2024
220.793750 879.18 2025
220.793750 1131.21 2026
220.793750 1131.39 2027
220.793750 1133.91 2028
220.793750 1134.08 2029
220.793750 1469.51 2030
220.793750 1481.15 2031
220.793750 1499.59 2032
220.793750 1527.03 2033
220.793750 1549.38 2034
220.793750 1559.19 2035
220.793750 1608.08 2036
220.793750 1616.17 2037
220.793750 60.42 2038
220.793750 81.32 2039
220.793750 95.45 2040
220.793750 105.31 2041
220.793750 108.94 2042
220.793750 127.33 2043
220.793750 133.83 2044
220.793750 150.92 2045
220.793750 157.18 2046
220.793750 160.07 2047
220.793750 168.24 2048
220.793750 176.73 2049
220.793750 182.42 2050
220.793750 192.54 2051
220.793750 200.75 2052
220.793750 211.92 2053
220.793750 213.37 2054
220.793750 218.66 2055
220.793750 241.37 2056
220.793750 249.33 2057
220.793750 257.10 2058
220.793750 269.54 2059
220.793750 279.51 2060
220.793750 296.24 2061
220.793750 315.92 2062
220.793750 320.97 2063
220.793750 339.45 2064
220.793750 344.73 2065
220.793750 347.49 2066
220.793750 354.94 2067
220.793750 362.36 2068
220.793750 368.35 2069
220.793750 377.99 2070
220.793750 384.65 2071
220.793750 395.54 2072
220.793750 410.47 2073
220.793750 709.07 2074
220.793750 710.18 2075
220.793750 717.71 2076
220.793750 718.21 2077
220.793750 732.53 2078
220.793750 733.27 2079
220.793750 739.43 2080
220.793750 740.08 2081
220.793750 872.03 2082
220.793750 875.73 2083
220.793750 880.75 2084
220.793750 882.41 2085
220.793750 1131.07 2086
220.793750 1131.36 2087
220.793750 1133.68 2088
220.793750 1133.93 2089
220.793750 1469.60 2090
220.793750 1477.41 2091
220.793750 1506.41 2092
220.793750 1525.93 2093
220.793750 1544.58 2094
220.793750 1551.96 2095
220.793750 1605.22 2096
220.793750 1613.37 2097
220.793750 60.42 2098
220.793750 81.32 2099
220.793750 95.45 2100
220.793750 105.31 2101
220.793750 108.94 2102
220.793750 127.33 2103
220.793750 133.83 2104
220.793750 150.92 2105
220.793750 157.18 2106
220.793750 160.07 2107
220.793750 168.24 2108
220.793750 176.73 2109
220.793750 182.42 2110
220.793750 192.54 2111
220.793750 200.75 2112
220.793750 211.92 2113
220.793750 213.37 2114
220.793750 218.66 2115
220.793750 241.37 2116
220.793750 249.33 2117
220.793750 257.10 2118
220.793750 269.54 2119
220.793750 279.51 2120
220.793750 296.24 2121
220.793750 315.92 2122
220.793750 320.97 2123
220.793750 339.45 2124
220.793750 344.73 2125
220.793750 347.49 2126
220.793750 354.94 2127
220.793750 362.36 2128
220.793750 368.35 2129
220.793750 377.99 2130
220.793750 384.65 2131
220.793750 395.54 2132
220.793750 410.47 2133
220.793750 709.07 2134
220.793750 710.18 2135
220.793750 717.71 2136
220.793750 718.21 2137
220.793750 732.53 2138
220.793750 733.27 2139
220.793750 739.43 2140
220.793750 740.08 2141
220.793750 872.03 2142
220.793750 875.73 2143
220.793750 880.75 2144
220.793750 882.41 2145
220.793750 1131.07 2146
220.793750 1131.36 2147
220.793750 1133.68 2148
220.793750 1133.93 2149
220.793750 1469.60 2150
220.793750 1477.41 2151
220.793750 1506.41 2152
220.793750 1525.93 2153
220.793750 1544.58 2154
220.793750 1551.96 2155
220.793750 1605.22 2156
220.793750 1613.37 2157
220.793750 78.74 2158
220.793750 87.11 2159
220.793750 112.50 2160
220.793750 113.01 2161
220.793750 122.73 2162
220.793750 124.53 2163
220.793750 134.19 2164
220.793750 142.49 2165
220.793750 146.76 2166
220.793750 151.80 2167
220.793750 154.52 2168
220.793750 163.49 2169
220.793750 185.52 2170
220.793750 185.73 2171
220.793750 193.74 2172
220.793750 208.35 2173
220.793750 225.63 2174
220.793750 233.00 2175
220.793750 239.65 2176
220.793750 268.14 2177
220.793750 274.12 2178
220.793750 284.89 2179
220.793750 298.08 2180
220.793750 301.44 2181
220.793750 301.46 2182
220.793750 315.58 2183
220.793750 343.81 2184
220.793750 346.95 2185
220.793750 360.20 2186
220.793750 361.56 2187
220.793750 366.84 2188
220.793750 373.27 2189
220.793750 378.48 2190
220.793750 385.68 2191
220.793750 387.85 2192
220.793750 393.13 2193
220.793750 711.46 2194
220.793750 712.88 2195
220.793750 715.40 2196
220.793750 715.81 2197
220.793750 731.09 2198
220.793750 731.47 2199
220.793750 738.54 2200
220.793750 740.24 2201
220.793750 869.72 2202
220.793750 871.14 2203
220.793750 877.13 2204
220.793750 877.16 2205
220.793750 1129.22 2206
220.793750 1129.91 2207
220.793750 1132.26 2208
220.793750 1132.79 2209
220.793750 1474.58 2210
220.793750 1478.19 2211
220.793750 1521.70 2212
220.793750 1532.54 2213
220.793750 1543.37 2214
220.793750 1550.02 2215
220.793750 1624.34 2216
220.793750 1628.26 2217
220.793750 77.99 2218
220.793750 98.80 2219
220.793750 115.24 2220
220.793750 118.48 2221
220.793750 123.03 2222
220.793750 129.19 2223
220.793750 139.17 2224
220.793750 144.14 2225
220.793750 155.39 2226
220.793750 159.71 2227
220.793750 161.00 2228
220.793750 179.50 2229
220.793750 182.13 2230
220.793750 190.76 2231
220.793750 196.21 2232
220.793750 210.35 2233
220.793750 218.95 2234
220.793750 224.75 2235
220.793750 240.17 2236
220.793750 251.03 2237
220.793750 275.76 2238
220.793750 281.02 2239
220.793750 289.76 2240
220.793750 301.96 2241
220.793750 313.07 2242
220.793750 326.73 2243
220.793750 332.58 2244
220.793750 338.72 2245
220.793750 355.42 2246
220.793750 358.60 2247
220.793750 364.93 2248
220.793750 372.81 2249
220.793750 379.32 2250
220.793750 383.11 2251
220.793750 385.26 2252
220.793750 393.79 2253
220.793750 711.44 2254
220.793750 712.37 2255
220.793750 717.25 2256
220.793750 717.98 2257
220.793750 730.57 2258
220.793750 731.02 2259
220.793750 737.35 2260
220.793750 738.00 2261
220.793750 871.87 2262
220.793750 874.04 2263
220.793750 875.55 2264
220.793750 877.27 2265
220.793750 1129.66 2266
220.793750 1130.18 2267
220.793750 1131.81 2268
220.793750 1132.06 2269
220.793750 1476.58 2270
220.793750 1480.38 2271
220.793750 1531.16 2272
220.793750 1539.31 2273
220.793750 1546.77 2274
220.793750 1552.89 2275
220.793750 1611.30 2276
220.793750 1616.05 2277
220.793750 77.99 2278
220.793750 98.80 2279
220.793750 115.24 2280
220.793750 118.48 2281
220.793750 123.03 2282
220.793750 129.19 2283
220.793750 139.17 2284
220.793750 144.14 2285
220.793750 155.39 2286
220.793750 159.71 2287
220.793750 161.00 2288
220.793750 179.50 2289
220.793750 182.13 2290
220.793750 190.76 2291
220.793750 196.21 2292
220.793750 210.35 2293
220.793750 218.95 2294
220.793750 224.75 2295
220.793750 240.17 2296
220.793750 251.03 2297
220.793750 275.76 2298
220.793750 281.02 2299
220.793750 289.76 2300
220.793750 301.96 2301
220.793750 313.07 2302
220.793750 326.73 2303
220.793750 332.58 2304
220.793750 338.72 2305
220.793750 355.42 2306
220.793750 358.60 2307
220.793750 364.93 2308
220.793750 372.81 2309
220.793750 379.32 2310
220.793750 383.11 2311
220.793750 385.26 2312
220.793750 393.79 2313
220.793750 711.44 2314
220.793750 712.37 2315
220.793750 717.25 2316
220.793750 717.98 2317
220.793750 730.57 2318
220.793750 731.02 2319
220.793750 737.35 2320
220.793750 738.00 2321
220.793750 871.87 2322
220.793750 874.04 2323
220.793750 875.55 2324
220.793750 877.27 2325
220.793750 1129.66 2326
220.793750 1130.18 2327
220.793750 1131.81 2328
220.793750 1132.06 2329
220.793750 1476.58 2330
220.793750 1480.38 2331
220.793750 1531.16 2332
220.793750 1539.31 2333
220.793750 1546.77 2334
220.793750 1552.89 2335
220.793750 1611.30 2336
220.793750 1616.05 2337
220.793750 78.74 2338
220.793750 87.11 2339
220.793750 112.50 2340
220.793750 113.01 2341
220.793750 122.73 2342
220.793750 124.53 2343
220.793750 134.19 2344
220.793750 142.49 2345
220.793750 146.76 2346
220.793750 151.80 2347
220.793750 154.52 2348
220.793750 163.49 2349
220.793750 185.52 2350
220.793750 185.73 2351
220.793750 193.74 2352
220.793750 208.35 2353
220.793750 225.63 2354
220.793750 233.00 2355
220.793750 239.65 2356
220.793750 268.14 2357
220.793750 274.12 2358
220.793750 284.89 2359
220.793750 298.08 2360
220.793750 301.44 2361
220.793750 301.46 2362
220.793750 315.58 2363
220.793750 343.81 2364
220.793750 346.95 2365
220.793750 360.20 2366
220.793750 361.56 2367
220.793750 366.84 2368
220.793750 373.27 2369
220.793750 378.48 2370
220.793750 385.68 2371
220.793750 387.85 2372
220.793750 393.13 2373
220.793750 711.46 2374
220.793750 712.88 2375
220.793750 715.40 2376
220.793750 715.81 2377
220.793750 731.09 2378
220.793750 731.47 2379
220.793750 738.54 2380
220.793750 740.24 2381
220.793750 869.72 2382
220.793750 871.14 2383
220.793750 877.13 2384
220.793750 877.16 2385
220.793750 1129.22 2386
220.793750 1129.91 2387
220.793750 1132.26 2388
220.793750 1132.79 2389
220.793750 1474.58 2390
220.793750 1478.19 2391
220.793750 1521.70 2392
220.793750 1532.54 2393
220.793750 1543.37 2394
220.793750 1550.02 2395
220.793750 1624.34 2396
220.793750 1628.26 2397
220.793750 77.99 2398
220.793750 98.80 2399
220.793750 115.24 2400
220.793750 118.48 2401
220.793750 123.03 2402
220.793750 129.19 2403
220.793750 139.17 2404
220.793750 144.14 2405
220.793750 155.39 2406
220.793750 159.71 2407
220.793750 161.00 2408
220.793750 179.50 2409
220.793750 182.13 2410
220.793750 190.76 2411
220.793750 196.21 2412
220.793750 210.35 2413
220.793750 218.95 2414
220.793750 224.75 2415
220.793750 240.17 2416
220.793750 251.03 2417
220.793750 275.76 2418
220.793750 281.02 2419
220.793750 289.76 2420
220.793750 301.96 2421
220.793750 313.07 2422
220.793750 326.73 2423
220.793750 332.58 2424
220.793750 338.72 2425
220.793750 355.42 2426
220.793750 358.60 2427
220.793750 364.93 2428
220.793750 372.81 2429
220.793750 379.32 2430
220.793750 383.11 2431
220.793750 385.26 2432
220.793750 393.79 2433
220.793750 711.44 2434
220.793750 712.37 2435
220.793750 717.25 2436
220.793750 717.98 2437
220.793750 730.57 2438
220.793750 731.02 2439
220.793750 737.35 2440
220.793750 738.00 2441
220.793750 871.87 2442
220.793750 874.04 2443
220.793750 875.55 2444
220.793750 877.27 2445
220.793750 1129.66 2446
220.793750 1130.18 2447
220.793750 1131.81 2448
220.793750 1132.06 2449
220.793750 1476.58 2450
220.793750 1480.38 2451
220.793750 1531.16 2452
220.793750 1539.31 2453
220.793750 1546.77 2454
220.793750 1552.89 2455
220.793750 1611.30 2456
220.793750 1616.05 2457
220.793750 77.99 2458
220.793750 98.80 2459
220.793750 115.24 2460
220.793750 118.48 2461
220.793750 123.03 2462
220.793750 129.19 2463
220.793750 139.17 2464
220.793750 144.14 2465
220.793750 155.39 2466
220.793750 159.71 2467
220.793750 161.00 2468
220.793750 179.50 2469
220.793750 182.13 2470
220.793750 190.76 2471
220.793750 196.21 2472
220.793750 210.35 2473
220.793750 218.95 2474
220.793750 224.75 2475
220.793750 240.17 2476
220.793750 251.03 2477
220.793750 275.76 2478
220.793750 281.02 2479
220.793750 289.76 2480
220.793750 301.96 2481
220.793750 313.07 2482
220.793750 326.73 2483
220.793750 332.58 2484
220.793750 338.72 2485
220.793750 355.42 2486
220.793750 358.60 2487
220.793750 364.93 2488
220.793750 372.81 2489
220.793750 379.32 2490
220.793750 383.11 2491
220.793750 385.26 2492
220.793750 393.79 2493
220.793750 711.44 2494
220.793750 712.37 2495
220.793750 717.25 2496
220.793750 717.98 2497
220.793750 730.57 2498
220.793750 731.02 2499
220.793750 737.35 2500
220.793750 738.00 2501
220.793750 871.87 2502
220.793750 874.04 2503
220.793750 875.55 2504
220.793750 877.27 2505
220.793750 1129.66 2506
220.793750 1130.18 2507
220.793750 1131.81 2508
220.793750 1132.06 2509
220.793750 1476.58 2510
220.793750 1480.38 2511
220.793750 1531.16 2512
220.793750 1539.31 2513
220.793750 1546.77 2514
220.793750 1552.89 2515
220.793750 1611.30 2516
220.793750 1616.05 2517
220.793750 81.61 2518
220.793750 90.22 2519
220.793750 101.21 2520
220.793750 114.17 2521
220.793750 119.13 2522
220.793750 126.84 2523
220.793750 130.82 2524
220.793750 132.01 2525
220.793750 141.89 2526
220.793750 144.64 2527
220.793750 155.29 2528
220.793750 171.10 2529
220.793750 175.36 2530
220.793750 189.15 2531
220.793750 192.48 2532
220.793750 208.23 2533
220.793750 217.44 2534
220.793750 219.09 2535
220.793750 244.90 2536
220.793750 257.33 2537
220.793750 261.75 2538
220.793750 267.59 2539
220.793750 297.53 2540
220.793750 299.89 2541
220.793750 311.97 2542
220.793750 327.24 2543
220.793750 339.28 2544
220.793750 349.53 2545
220.793750 352.84 2546
220.793750 359.57 2547
220.793750 361.96 2548
220.793750 367.47 2549
220.793750 376.29 2550
220.793750 384.82 2551
220.793750 398.38 2552
220.793750 403.81 2553
220.793750 709.58 2554
220.793750 713.24 2555
220.793750 714.39 2556
220.793750 717.05 2557
220.793750 732.49 2558
220.793750 733.69 2559
220.793750 738.87 2560
220.793750 740.64 2561
220.793750 870.97 2562
220.793750 874.37 2563
220.793750 879.10 2564
220.793750 879.18 2565
220.793750 1131.21 2566
220.793750 1131.39 2567
220.793750 1133.91 2568
220.793750 1134.08 2569
220.793750 1469.51 2570
220.793750 1481.15 2571
220.793750 1499.59 2572
220.793750 1527.03 2573
220.793750 1549.38 2574
220.793750 1559.19 2575
220.793750 1608.08 2576
220.793750 1616.17 2577
220.793750 60.42 2578
220.793750 81.32 2579
220.793750 95.45 2580
220.793750 105.31 2581
220.793750 108.94 2582
220.793750 127.33 2583
220.793750 133.83 2584
220.793750 150.92 2585
220.793750 157.18 2586
220.793750 160.07 2587
220.793750 168.24 2588
220.793750 176.73 2589
220.793750 182.42 2590
220.793750 192.54 2591
220.793750 200.75 2592
220.793750 211.92 2593
220.793750 213.37 2594
220.793750 218.66 2595
220.793750 241.37 2596
220.793750 249.33 2597
220.793750 257.10 2598
220.793750 269.54 2599
220.793750 279.51 2600
220.793750 296.24 2601
220.793750 315.92 2602
220.793750 320.97 2603
220.793750 339.45 2604
220.793750 344.73 2605
220.793750 347.49 2606
220.793750 354.94 2607
220.793750 362.36 2608
220.793750 368.35 2609
220.793750 377.99 2610
220.793750 384.65 2611
220.793750 395.54 2612
220.793750 410.47 2613
220.793750 709.07 2614
220.793750 710.18 2615
220.793750 717.71 2616
220.793750 718.21 2617
220.793750 732.53 2618
220.793750 733.27 2619
220.793750 739.43 2620
220.793750 740.08 2621
220.793750 872.03 2622
220.793750 875.73 2623
220.793750 880.75 2624
220.793750 882.41 2625
220.793750 1131.07 2626
220.793750 1131.36 2627
220.793750 1133.68 2628
220.793750 1133.93 2629
220.793750 1469.60 2630
220.793750 1477.41 2631
220.793750 1506.41 2632
220.793750 1525.93 2633
220.793750 1544.58 2634
220.793750 1551.96 2635
220.793750 1605.22 2636
220.793750 1613.37 2637
220.793750 60.42 2638
220.793750 81.32 2639
220.793750 95.45 2640
220.793750 105.31 2641
220.793750 108.94 2642
220.793750 127.33 2643
220.793750 133.83 2644
220.793750 150.92 2645
220.793750 157.18 2646
220.793750 160.07 2647
220.793750 168.24 2648
220.793750 176.73 2649
220.793750 182.42 2650
220.793750 192.54 2651
220.793750 200.75 2652
220.793750 211.92 2653
220.793750 213.37 2654
220.793750 218.66 2655
220.793750 241.37 2656
220.793750 249.33 2657
220.793750 257.10 2658
220.793750 269.54 2659
220.793750 279.51 2660
220.793750 296.24 2661
220.793750 315.92 2662
220.793750 320.97 2663
220.793750 339.45 2664
220.793750 344.73 2665
220.793750 347.49 2666
220.793750 354.94 2667
220.793750 362.36 2668
220.793750 368.35 2669
220.793750 377.99 2670
220.793750 384.65 2671
220.793750 395.54 2672
220.793750 410.47 2673
220.793750 709.07 2674
220.793750 710.18 2675
220.793750 717.71 2676
220.793750 718.21 2677
220.793750 732.53 2678
220.793750 733.27 2679
220.793750 739.43 2680
220.793750 740.08 2681
220.793750 872.03 2682
220.793750 875.73 2683
220.793750 880.75 2684
220.793750 882.41 2685
220.793750 1131.07 2686
220.793750 1131.36 2687
220.793750 1133.68 2688
220.793750 1133.93 2689
220.793750 1469.60 2690
220.793750 1477.41 2691
220.793750 1506.41 2692
220.793750 1525.93 2693
220.793750 1544.58 2694
220.793750 1551.96 2695
220.793750 1605.22 2696
220.793750 1613.37 2697
220.793750 -22.12 2698
220.793750 44.83 2699
220.793750 81.07 2700
220.793750 85.32 2701
220.793750 95.33 2702
220.793750 117.62 2703
220.793750 131.32 2704
220.793750 138.56 2705
220.793750 145.89 2706
220.793750 159.54 2707
220.793750 162.31 2708
220.793750 170.29 2709
220.793750 185.75 2710
220.793750 188.78 2711
220.793750 199.93 2712
220.793750 200.98 2713
220.793750 209.87 2714
220.793750 221.23 2715
220.793750 236.94 2716
220.793750 252.64 2717
220.793750 264.90 2718
220.793750 275.26 2719
220.793750 296.24 2720
220.793750 312.47 2721
220.793750 316.10 2722
220.793750 326.72 2723
220.793750 330.46 2724
220.793750 339.25 2725
220.793750 349.12 2726
220.793750 354.91 2727
220.793750 361.35 2728
220.793750 368.68 2729
220.793750 374.77 2730
220.793750 381.23 2731
220.793750 392.03 2732
220.793750 429.68 2733
220.793750 708.08 2734
220.793750 708.19 2735
220.793750 716.84 2736
220.793750 717.57 2737
220.793750 733.52 2738
220.793750 736.24 2739
220.793750 739.50 2740
220.793750 742.79 2741
220.793750 873.00 2742
220.793750 876.18 2743
220.793750 876.53 2744
220.793750 881.33 2745
220.793750 1132.06 2746
220.793750 1132.79 2747
220.793750 1133.99 2748
220.793750 1135.37 2749
220.793750 1467.81 2750
220.793750 1483.28 2751
220.793750 1490.81 2752
220.793750 1503.35 2753
220.793750 1561.03 2754
220.793750 1568.07 2755
220.793750 1602.84 2756
220.793750 1609.86 2757
220.793750 54.39 2758
220.793750 56.17 2759
220.793750 70.71 2760
220.793750 96.87 2761
220.793750 99.35 2762
220.793750 111.77 2763
220.793750 126.70 2764
220.793750 137.90 2765
220.793750 146.98 2766
220.793750 166.42 2767
220.793750 166.84 2768
220.793750 178.31 2769
220.793750 185.98 2770
220.793750 193.55 2771
220.793750 196.82 2772
220.793750 203.47 2773
220.793750 215.88 2774
220.793750 234.01 2775
220.793750 240.56 2776
220.793750 246.02 2777
220.793750 254.55 2778
220.793750 269.38 2779
220.793750 278.81 2780
220.793750 291.72 2781
220.793750 317.84 2782
220.793750 321.57 2783
220.793750 328.02 2784
220.793750 335.96 2785
220.793750 353.92 2786
220.793750 356.90 2787
220.793750 366.08 2788
220.793750 373.59 2789
220.793750 375.90 2790
220.793750 381.82 2791
220.793750 391.25 2792
220.793750 433.11 2793
220.793750 706.76 2794
220.793750 707.96 2795
220.793750 717.39 2796
220.793750 718.15 2797
220.793750 734.08 2798
220.793750 734.92 2799
220.793750 740.93 2800
220.793750 742.63 2801
220.793750 873.38 2802
220.793750 874.49 2803
220.793750 883.28 2804
220.793750 891.54 2805
220.793750 1131.99 2806
220.793750 1133.00 2807
220.793750 1134.29 2808
220.793750 1135.15 2809
220.793750 1465.25 2810
220.793750 1469.11 2811
220.793750 1494.37 2812
220.793750 1494.79 2813
220.793750 1539.84 2814
220.793750 1563.29 2815
220.793750 1579.35 2816
220.793750 1627.48 2817
220.793750 46.28 2818
220.793750 61.49 2819
220.793750 93.31 2820
220.793750 103.52 2821
220.793750 109.73 2822
220.793750 125.35 2823
220.793750 128.04 2824
220.793750 132.16 2825
220.793750 148.21 2826
220.793750 153.63 2827
220.793750 160.80 2828
220.793750 169.58 2829
220.793750 177.81 2830
220.793750 191.44 2831
220.793750 204.11 2832
220.793750 206.74 2833
220.793750 220.99 2834
220.793750 221.75 2835
220.793750 234.06 2836
220.793750 242.94 2837
220.793750 261.82 2838
220.793750 268.02 2839
220.793750 282.86 2840
220.793750 290.88 2841
220.793750 312.00 2842
220.793750 332.90 2843
220.793750 335.15 2844
220.793750 340.38 2845
220.793750 343.32 2846
220.793750 357.91 2847
220.793750 370.16 2848
220.793750 371.53 2849
220.793750 377.05 2850
220.793750 382.03 2851
220.793750 400.92 2852
220.793750 415.53 2853
220.793750 709.24 2854
220.793750 711.69 2855
220.793750 714.11 2856
220.793750 716.53 2857
220.793750 734.57 2858
220.793750 735.67 2859
220.793750 740.83 2860
220.793750 742.32 2861
220.793750 869.38 2862
220.793750 878.18 2863
220.793750 879.78 2864
220.793750 881.11 2865
220.793750 1132.37 2866
220.793750 1132.77 2867
220.793750 1134.55 2868
220.793750 1134.92 2869
220.793750 1469.70 2870
220.793750 1476.25 2871
220.793750 1492.01 2872
220.793750 1504.57 2873
220.793750 1557.28 2874
220.793750 1563.36 2875
220.793750 1593.20 2876
220.793750 1643.65 2877
220.793750 69.02 2878
220.793750 83.57 2879
220.793750 95.35 2880
220.793750 104.61 2881
220.793750 119.18 2882
220.793750 125.56 2883
220.793750 131.58 2884
220.793750 140.32 2885
220.793750 148.15 2886
220.793750 150.74 2887
220.793750 156.23 2888
220.793750 171.31 2889
220.793750 184.99 2890
220.793750 188.96 2891
220.793750 195.34 2892
220.793750 200.22 2893
220.793750 214.75 2894
220.793750 218.50 2895
220.793750 236.28 2896
220.793750 243.91 2897
220.793750 268.59 2898
220.793750 283.51 2899
220.793750 294.28 2900
220.793750 299.79 2901
220.793750 311.56 2902
220.793750 321.98 2903
220.793750 337.29 2904
220.793750 343.94 2905
220.793750 349.92 2906
220.793750 353.02 2907
220.793750 366.43 2908
220.793750 370.39 2909
220.793750 373.51 2910
220.793750 382.11 2911
220.793750 390.39 2912
220.793750 429.47 2913
220.793750 709.30 2914
220.793750 710.17 2915
220.793750 717.12 2916
220.793750 717.43 2917
220.793750 733.12 2918
220.793750 734.70 2919
220.793750 737.62 2920
220.793750 740.45 2921
220.793750 870.05 2922
220.793750 873.41 2923
220.793750 876.19 2924
220.793750 880.12 2925
220.793750 1131.36 2926
220.793750 1131.52 2927
220.793750 1133.24 2928
220.793750 1134.05 2929
220.793750 1468.35 2930
220.793750 1487.47 2931
220.793750 1502.70 2932
220.793750 1524.58 2933
220.793750 1554.09 2934
220.793750 1568.48 2935
220.793750 1598.76 2936
220.793750 1633.55 2937
220.793750 44.61 2938
220.793750 69.22 2939
220.793750 75.78 2940
220.793750 106.59 2941
220.793750 117.69 2942
220.793750 123.64 2943
220.793750 135.33 2944
220.793750 136.56 2945
220.793750 155.11 2946
220.793750 158.26 2947
220.793750 170.46 2948
220.793750 179.36 2949
220.793750 191.04 2950
220.793750 201.29 2951
220.793750 202.78 2952
220.793750 205.77 2953
220.793750 217.05 2954
220.793750 219.11 2955
220.793750 230.22 2956
220.793750 250.11 2957
220.793750 270.54 2958
220.793750 281.78 2959
220.793750 285.36 2960
220.793750 296.92 2961
220.793750 305.85 2962
220.793750 324.22 2963
220.793750 331.16 2964
220.793750 334.12 2965
220.793750 348.76 2966
220.793750 359.42 2967
220.793750 362.03 2968
220.793750 369.05 2969
220.793750 375.08 2970
220.793750 385.24 2971
220.793750 389.16 2972
220.793750 415.96 2973
220.793750 708.42 2974
220.793750 710.38 2975
220.793750 717.98 2976
220.793750 718.72 2977
220.793750 733.39 2978
220.793750 733.73 2979
220.793750 738.85 2980
220.793750 740.43 2981
220.793750 873.54 2982
220.793750 873.89 2983
220.793750 879.36 2984
220.793750 881.19 2985
220.793750 1131.19 2986
220.793750 1131.98 2987
220.793750 1133.14 2988
220.793750 1133.75 2989
220.793750 1471.62 2990
220.793750 1487.06 2991
220.793750 1510.72 2992
220.793750 1522.68 2993
220.793750 1548.13 2994
220.793750 1560.92 2995
220.793750 1587.98 2996
220.793750 1623.90 2997
220.793750 60.88 2998
220.793750 80.71 2999
220.793750 88.40 3000
220.793750 104.24 3001
220.793750 117.00 3002
220.793750 119.11 3003
220.793750 130.24 3004
220.793750 142.19 3005
220.793750 149.51 3006
220.793750 153.23 3007
220.793750 170.31 3008
220.793750 177.86 3009
220.793750 180.90 3010
220.793750 193.01 3011
220.793750 202.16 3012
220.793750 210.44 3013
220.793750 218.96 3014
220.793750 226.12 3015
220.793750 237.16 3016
220.793750 255.85 3017
220.793750 259.77 3018
220.793750 269.05 3019
220.793750 283.87 3020
220.793750 296.94 3021
220.793750 307.81 3022
220.793750 322.53 3023
220.793750 337.69 3024
220.793750 342.60 3025
220.793750 350.66 3026
220.793750 359.74 3027
220.793750 365.44 3028
220.793750 368.38 3029
220.793750 383.06 3030
220.793750 384.70 3031
220.793750 392.90 3032
220.793750 399.01 3033
220.793750 710.11 3034
220.793750 713.33 3035
220.793750 715.06 3036
220.793750 718.03 3037
220.793750 732.95 3038
220.793750 734.38 3039
220.793750 738.50 3040
220.793750 740.50 3041
220.793750 869.71 3042
220.793750 877.36 3043
220.793750 877.84 3044
220.793750 878.49 3045
220.793750 1131.23 3046
220.793750 1131.88 3047
220.793750 1133.40 3048
220.793750 1133.81 3049
220.793750 1475.28 3050
220.793750 1487.07 3051
220.793750 1496.10 3052
220.793750 1519.30 3053
220.793750 1555.14 3054
220.793750 1568.94 3055
220.793750 1593.12 3056
220.793750 1639.08 3057
220.793750 81.25 3058
220.793750 85.74 3059
220.793750 97.22 3060
220.793750 104.01 3061
220.793750 127.03 3062
220.793750 131.89 3063
220.793750 135.82 3064
220.793750 140.57 3065
220.793750 154.53 3066
220.793750 166.74 3067
220.793750 169.20 3068
220.793750 177.56 3069
220.793750 182.46 3070
220.793750 188.37 3071
220.793750 200.10 3072
220.793750 204.89 3073
220.793750 215.20 3074
220.793750 225.35 3075
220.793750 249.98 3076
220.793750 265.09 3077
220.793750 272.59 3078
220.793750 274.22 3079
220.793750 286.83 3080
220.793750 291.92 3081
220.793750 307.81 3082
220.793750 324.15 3083
220.793750 336.29 3084
220.793750 347.52 3085
220.793750 354.75 3086
220.793750 361.03 3087
220.793750 366.21 3088
220.793750 367.77 3089
220.793750 375.78 3090
220.793750 386.24 3091
220.793750 389.03 3092
220.793750 395.74 3093
220.793750 712.42 3094
220.793750 712.81 3095
220.793750 715.44 3096
220.793750 716.39 3097
220.793750 732.03 3098
220.793750 732.33 3099
220.793750 737.51 3100
220.793750 739.00 3101
220.793750 869.26 3102
220.793750 871.08 3103
220.793750 876.16 3104
220.793750 877.70 3105
220.793750 1129.61 3106
220.793750 1130.05 3107
220.793750 1131.83 3108
220.793750 1132.48 3109
220.793750 1479.80 3110
220.793750 1486.45 3111
220.793750 1525.08 3112
220.793750 1534.58 3113
220.793750 1546.92 3114
220.793750 1554.17 3115
220.793750 1619.07 3116
220.793750 1635.27 3117
220.793750 77.49 3118
220.793750 87.96 3119
220.793750 101.23 3120
220.793750 108.09 3121
220.793750 120.69 3122
220.793750 129.65 3123
220.793750 135.66 3124
220.793750 149.10 3125
220.793750 151.46 3126
220.793750 168.64 3127
220.793750 172.48 3128
220.793750 180.56 3129
220.793750 193.57 3130
220.793750 199.31 3131
220.793750 208.43 3132
220.793750 210.26 3133
220.793750 214.79 3134
220.793750 223.22 3135
220.793750 244.44 3136
220.793750 258.74 3137
220.793750 266.40 3138
220.793750 274.63 3139
220.793750 287.54 3140
220.793750 290.44 3141
220.793750 313.46 3142
220.793750 331.75 3143
220.793750 335.08 3144
220.793750 340.65 3145
220.793750 343.88 3146
220.793750 356.73 3147
220.793750 361.75 3148
220.793750 369.42 3149
220.793750 375.42 3150
220.793750 381.03 3151
220.793750 387.82 3152
220.793750 392.75 3153
220.793750 711.67 3154
220.793750 712.98 3155
220.793750 717.42 3156
220.793750 718.30 3157
220.793750 731.49 3158
220.793750 731.75 3159
220.793750 737.24 3160
220.793750 737.68 3161
220.793750 872.53 3162
220.793750 872.98 3163
220.793750 874.77 3164
220.793750 877.37 3165
220.793750 1130.12 3166
220.793750 1130.35 3167
220.793750 1131.32 3168
220.793750 1131.72 3169
220.793750 1482.76 3170
220.793750 1488.24 3171
220.793750 1529.36 3172
220.793750 1535.00 3173
220.793750 1558.54 3174
220.793750 1565.15 3175
220.793750 1604.30 3176
220.793750 1616.46 3177
220.793750 63.24 3178
220.793750 85.36 3179
220.793750 96.96 3180
220.793750 112.72 3181
220.793750 124.43 3182
220.793750 133.10 3183
220.793750 139.06 3184
220.793750 148.49 3185
220.793750 160.39 3186
220.793750 166.01 3187
220.793750 169.38 3188
220.793750 177.12 3189
220.793750 178.76 3190
220.793750 192.72 3191
220.793750 205.50 3192
220.793750 210.35 3193
220.793750 216.13 3194
220.793750 224.64 3195
220.793750 245.55 3196
220.793750 251.28 3197
220.793750 264.07 3198
220.793750 272.66 3199
220.793750 284.30 3200
220.793750 306.36 3201
220.793750 314.78 3202
220.793750 324.39 3203
220.793750 339.57 3204
220.793750 347.37 3205
220.793750 348.39 3206
220.793750 361.10 3207
220.793750 364.39 3208
220.793750 366.49 3209
220.793750 374.57 3210
220.793750 380.17 3211
220.793750 389.21 3212
220.793750 390.13 3213
220.793750 711.72 3214
220.793750 713.35 3215
220.793750 715.89 3216
220.793750 716.85 3217
220.793750 731.74 3218
220.793750 732.26 3219
220.793750 737.78 3220
220.793750 739.18 3221
220.793750 871.17 3222
220.793750 874.00 3223
220.793750 875.84 3224
220.793750 876.04 3225
220.793750 1129.70 3226
220.793750 1130.35 3227
220.793750 1131.62 3228
220.793750 1132.04 3229
220.793750 1483.73 3230
220.793750 1488.05 3231
220.793750 1518.70 3232
220.793750 1527.75 3233
220.793750 1558.58 3234
220.793750 1565.85 3235
220.793750 1608.16 3236
220.793750 1626.92 3237
220.793750 81.25 3238
220.793750 85.74 3239
220.793750 97.22 3240
220.793750 104.01 3241
220.793750 127.03 3242
220.793750 131.89 3243
220.793750 135.82 3244
220.793750 140.57 3245
220.793750 154.53 3246
220.793750 166.74 3247
220.793750 169.20 3248
220.793750 177.56 3249
220.793750 182.46 3250
220.793750 188.37 3251
220.793750 200.10 3252
220.793750 204.89 3253
220.793750 215.20 3254
220.793750 225.35 3255
220.793750 249.98 3256
220.793750 265.09 3257
220.793750 272.59 3258
220.793750 274.22 3259
220.793750 286.83 3260
220.793750 291.92 3261
220.793750 307.81 3262
220.793750 324.15 3263
220.793750 336.29 3264
220.793750 347.52 3265
220.793750 354.75 3266
220.793750 361.03 3267
220.793750 366.21 3268
220.793750 367.77 3269
220.793750 375.78 3270
220.793750 386.24 3271
220.793750 389.03 3272
220.793750 395.74 3273
220.793750 712.42 3274
220.793750 712.81 3275
220.793750 715.44 3276
220.793750 716.39 3277
220.793750 732.03 3278
220.793750 732.33 3279
220.793750 737.51 3280
220.793750 739.00 3281
220.793750 869.26 3282
220.793750 871.08 3283
220.793750 876.16 3284
220.793750 877.70 3285
220.793750 1129.61 3286
220.793750 1130.05 3287
220.793750 1131.83 3288
220.793750 1132.48 3289
220.793750 1479.80 3290
220.793750 1486.45 3291
220.793750 1525.08 3292
220.793750 1534.58 3293
220.793750 1546.92 3294
220.793750 1554.17 3295
220.793750 1619.07 3296
220.793750 1635.27 3297
220.793750 77.49 3298
220.793750 87.96 3299
220.793750 101.23 3300
220.793750 108.09 3301
220.793750 120.69 3302
220.793750 129.65 3303
220.793750 135.66 3304
220.793750 149.10 3305
220.793750 151.46 3306
220.793750 168.64 3307
220.793750 172.48 3308
220.793750 180.56 3309
220.793750 193.57 3310
220.793750 199.31 3311
220.793750 208.43 3312
220.793750 210.26 3313
220.793750 214.79 3314
220.793750 223.22 3315
220.793750 244.44 3316
220.793750 258.74 3317
220.793750 266.40 3318
220.793750 274.63 3319
220.793750 287.54 3320
220.793750 290.44 3321
220.793750 313.46 3322
220.793750 331.75 3323
220.793750 335.08 3324
220.793750 340.65 3325
220.793750 343.88 3326
220.793750 356.73 3327
220.793750 361.75 3328
220.793750 369.42 3329
220.793750 375.42 3330
220.793750 381.03 3331
220.793750 387.82 3332
220.793750 392.75 3333
220.793750 711.67 3334
220.793750 712.98 3335
220.793750 717.42 3336
220.793750 718.30 3337
220.793750 731.49 3338
220.793750 731.75 3339
220.793750 737.24 3340
220.793750 737.68 3341
220.793750 872.53 3342
220.793750 872.98 3343
220.793750 874.77 3344
220.793750 877.37 3345
220.793750 1130.12 3346
220.793750 1130.35 3347
220.793750 1131.32 3348
220.793750 1131.72 3349
220.793750 1482.76 3350
220.793750 1488.24 3351
220.793750 1529.36 3352
220.793750 1535.00 3353
220.793750 1558.54 3354
220.793750 1565.15 3355
220.793750 1604.30 3356
220.793750 1616.46 3357
220.793750 63.24 3358
220.793750 85.36 3359
220.793750 96.96 3360
220.793750 112.72 3361
220.793750 124.43 3362
220.793750 133.10 3363
220.793750 139.06 3364
220.793750 148.49 3365
220.793750 160.39 3366
220.793750 166.01 3367
220.793750 169.38 3368
220.793750 177.12 3369
220.793750 178.76 3370
220.793750 192.72 3371
220.793750 205.50 3372
220.793750 210.35 3373
220.793750 216.13 3374
220.793750 224.64 3375
220.793750 245.55 3376
220.793750 251.28 3377
220.793750 264.07 3378
220.793750 272.66 3379
220.793750 284.30 3380
220.793750 306.36 3381
220.793750 314.78 3382
220.793750 324.39 3383
220.793750 339.57 3384
220.793750 347.37 3385
220.793750 348.39 3386
220.793750 361.10 3387
220.793750 364.39 3388
220.793750 366.49 3389
220.793750 374.57 3390
220.793750 380.17 3391
220.793750 389.21 3392
220.793750 390.13 3393
220.793750 711.72 3394
220.793750 713.35 3395
220.793750 715.89 3396
220.793750 716.85 3397
220.793750 731.74 3398
220.793750 732.26 3399
220.793750 737.78 3400
220.793750 739.18 3401
220.793750 871.17 3402
220.793750 874.00 3403
220.793750 875.84 3404
220.793750 876.04 3405
220.793750 1129.70 3406
220.793750 1130.35 3407
220.793750 1131.62 3408
220.793750 1132.04 3409
220.793750 1483.73 3410
220.793750 1488.05 3411
220.793750 1518.70 3412
220.793750 1527.75 3413
220.793750 1558.58 3414
220.793750 1565.85 3415
220.793750 1608.16 3416
220.793750 1626.92 3417
220.793750 69.02 3418
220.793750 83.57 3419
220.793750 95.35 3420
220.793750 104.61 3421
220.793750 119.18 3422
220.793750 125.56 3423
220.793750 131.58 3424
220.793750 140.32 3425
220.793750 148.15 3426
220.793750 150.74 3427
220.793750 156.23 3428
220.793750 171.31 3429
220.793750 184.99 3430
220.793750 188.96 3431
220.793750 195.34 3432
220.793750 200.22 3433
220.793750 214.75 3434
220.793750 218.50 3435
220.793750 236.28 3436
220.793750 243.91 3437
220.793750 268.59 3438
220.793750 283.51 3439
220.793750 294.28 3440
220.793750 299.79 3441
220.793750 311.56 3442
220.793750 321.98 3443
220.793750 337.29 3444
220.793750 343.94 3445
220.793750 349.92 3446
220.793750 353.02 3447
220.793750 366.43 3448
220.793750 370.39 3449
220.793750 373.51 3450
220.793750 382.11 3451
220.793750 390.39 3452
220.793750 429.47 3453
220.793750 709.30 3454
220.793750 710.17 3455
220.793750 717.12 3456
220.793750 717.43 3457
220.793750 733.12 3458
220.793750 734.70 3459
220.793750 737.62 3460
220.793750 740.45 3461
220.793750 870.05 3462
220.793750 873.41 3463
220.793750 876.19 3464
220.793750 880.12 3465
220.793750 1131.36 3466
220.793750 1131.52 3467
220.793750 1133.24 3468
220.793750 1134.05 3469
220.793750 1468.35 3470
220.793750 1487.47 3471
220.793750 1502.70 3472
220.793750 1524.58 3473
220.793750 1554.09 3474
220.793750 1568.48 3475
220.793750 1598.76 3476
220.793750 1633.55 3477
220.793750 44.61 3478
220.793750 69.22 3479
220.793750 75.78 3480
220.793750 106.59 3481
220.793750 117.69 3482
220.793750 123.64 3483
220.793750 135.33 3484
220.793750 136.56 3485
220.793750 155.11 3486
220.793750 158.26 3487
220.793750 170.46 3488
220.793750 179.36 3489
220.793750 191.04 3490
220.793750 201.29 3491
220.793750 202.78 3492
220.793750 205.77 3493
220.793750 217.05 3494
220.793750 219.11 3495
220.793750 230.22 3496
220.793750 250.11 3497
220.793750 270.54 3498
220.793750 281.78 3499
220.793750 285.36 3500
220.793750 296.92 3501
220.793750 305.85 3502
220.793750 324.22 3503
220.793750 331.16 3504
220.793750 334.12 3505
220.793750 348.76 3506
220.793750 359.42 3507
220.793750 362.03 3508
220.793750 369.05 3509
220.793750 375.08 3510
220.793750 385.24 3511
220.793750 389.16 3512
220.793750 415.96 3513
220.793750 708.42 3514
220.793750 710.38 3515
220.793750 717.98 3516
220.793750 718.72 3517
220.793750 733.39 3518
220.793750 733.73 3519
220.793750 738.85 3520
220.793750 740.43 3521
220.793750 873.54 3522
220.793750 873.89 3523
220.793750 879.36 3524
220.793750 881.19 3525
220.793750 1131.19 3526
220.793750 1131.98 3527
220.793750 1133.14 3528
220.793750 1133.75 3529
220.793750 1471.62 3530
220.793750 1487.06 3531
220.793750 1510.72 3532
220.793750 1522.68 3533
220.793750 1548.13 3534
220.793750 1560.92 3535
220.793750 1587.98 3536
220.793750 1623.90 3537
220.793750 60.88 3538
220.793750 80.71 3539
220.793750 88.40 3540
220.793750 104.24 3541
220.793750 117.00 3542
220.793750 119.11 3543
220.793750 130.24 3544
220.793750 142.19 3545
220.793750 149.51 3546
220.793750 153.23 3547
220.793750 170.31 3548
220.793750 177.86 3549
220.793750 180.90 3550
220.793750 193.01 3551
220.793750 202.16 3552
220.793750 210.44 3553
220.793750 218.96 3554
220.793750 226.12 3555
220.793750 237.16 3556
220.793750 255.85 3557
220.793750 259.77 3558
220.793750 269.05 3559
220.793750 283.87 3560
220.793750 296.94 3561
220.793750 307.81 3562
220.793750 322.53 3563
220.793750 337.69 3564
220.793750 342.60 3565
220.793750 350.66 3566
220.793750 359.74 3567
220.793750 365.44 3568
220.793750 368.38 3569
220.793750 383.06 3570
220.793750 384.70 3571
220.793750 392.90 3572
220.793750 399.01 3573
220.793750 710.11 3574
220.793750 713.33 3575
220.793750 715.06 3576
220.793750 718.03 3577
220.793750 732.95 3578
220.793750 734.38 3579
220.793750 738.50 3580
220.793750 740.50 3581
220.793750 869.71 3582
220.793750 877.36 3583
220.793750 877.84 3584
220.793750 878.49 3585
220.793750 1131.23 3586
220.793750 1131.88 3587
220.793750 1133.40 3588
220.793750 1133.81 3589
220.793750 1475.28 3590
220.793750 1487.07 3591
220.793750 1496.10 3592
220.793750 1519.30 3593
220.793750 1555.14 3594
220.793750 1568.94 3595
220.793750 1593.12 3596
220.793750 1639.08 3597
